Folder: RzSpEC-project/resorufin_10x_frittedTiCt_FTOWE_AgAgClref_N2sparge_3_16_CV_C12 (part 3)

File: resorufin_10x_frittedTiCt_FTOWE_AgAgClref_N2sparge_3_10_CV_C12.txt
EC-Lab ASCII FILE
Nb header lines : 59

Cyclic Voltammetry

Run on channel : 12 (SN 15159)
User :
CE vs. WE compliance from -10 V to 10 V
Electrode connection : standard
Potential control : Ewe
Ewe ctrl range : min = -2.50 V, max = 2.50 V
Safety Limits :
	Do not start on E overload
Acquisition started on : 06/27/2024 22:37:21.030
Technique started on : 06/27/2024 22:46:37.499
Loaded Setting File :  NONE
Saved on :
	File : resorufin_10x_frittedTiCt_FTOWE_AgAgClref_N2sparge_3_10_CV_C12.mpr
	Directory : C:\Users\user\OneDrive - California Institute of Technology\Desktop\Big James\06272024_resorufin_spEC_test\
	Host : 10.8.34.190
Device : VMP3 (SN 1026)
Address : 131.215.231.69
EC-Lab for windows v11.50 (software)
Internet server v11.52 (firmware)
Command interpretor v11.50 (firmware)
Electrode material : Au/Pd
Initial state :
Electrolyte : NaCl (0.2M)
Comments : Fe(CN)63-/Fe(CN)64- 5.10-3 M
Reference electrode : SCE Saturated Calomel Electrode (0.241 V)
Electrode surface area : 0.001 cm²
Characteristic mass : 0.001 g
Equivalent Weight : 0.000 g/eq.
Density : 0.000 g/cm3
Volume (V) : 0.001 cm³
Cycle Definition : Charge/Discharge alternance
Ei (V)              0.000
vs.                 Eoc
dE/dt               50.000
dE/dt unit          mV/s
E1 (V)              1.000
vs.                 Ref
Step percent        50
N                   10
E range min (V)     -2.500
E range max (V)     2.500
I Range             Auto
I Range min         Unset
I Range max         Unset
I Range init        Unset
Bandwidth           5
E2 (V)              -1.000
vs.                 Ref
nc cycles           5
Reverse Scan        1
Ef (V)              0.000
vs.                 Eoc

mode	ox/red	error	control changes	counter inc.	time/s	control/V	Ewe/V	<I>/mA	cycle number	(Q-Qo)/C	I Range	step time/s	P/W
2	1	0	0	0	556.469	-0.357092	-0.359808	0.00671198	1	0.0000000E+000	14	0.000000000000000E+000	-2.41503e-06
2	1	0	1	0	560.431	-0.159	-0.160568	0.0397538	1	8.27294e-05	13	3.9359	-6.3832e-06
2	1	0	1	0	564.372	0.0380428	0.0365778	0.069763	1	0.00030113	13	7.8767	2.55178e-06
2	1	0	1	0	568.343	0.236586	0.235194	0.101922	1	0.000641255	12	11.8475	2.39716e-05
2	1	0	0	0	572.284	0.433628	0.432174	0.129863	1	0.00109669	12	15.7885	5.61233e-05
2	1	0	0	0	576.225	0.630671	0.629155	0.157265	1	0.00166584	12	19.7293	9.89443e-05
2	1	0	0	0	580.166	0.827713	0.826225	0.185081	1	0.00234534	12	23.6701	0.000152918
2	1	0	0	0	584.083	0.976445	0.975066	0.203123	1	0.00312318	12	27.5875	0.000198058
2	1	0	0	0	588.024	0.779403	0.777954	0.167411	1	0.00385035	12	31.5283	0.000130238
2	1	0	0	0	591.965	0.58236	0.580929	0.135098	1	0.00444212	12	35.4691	7.84822e-05
2	1	0	0	0	595.905	0.385318	0.383749	0.101976	1	0.00490794	12	39.4099	3.91334e-05
2	1	0	1	0	599.846	0.188275	0.186892	0.0741296	1	0.00525376	12	43.3509	1.38542e-05
2	1	0	1	0	603.787	-0.00876732	-0.010307	0.0420257	1	0.00548063	12	47.2917	-4.33157e-07
2	1	0	1	0	607.728	-0.20581	-0.207271	0.00265298	1	0.00556481	12	51.2325	-5.49887e-07
2	0	0	1	0	611.669	-0.402854	-0.404416	-0.0188441	1	0.00553039	12	3.4207	7.62084e-06
2	0	0	0	0	615.61	-0.599895	-0.601559	-0.0463349	1	0.00540332	12	7.3616	2.78732e-05
2	0	0	0	0	619.551	-0.796938	-0.798366	-0.0719997	1	0.00516928	12	11.3024	5.74821e-05
2	0	0	0	0	623.491	-0.99398	-0.995546	-0.103718	1	0.00482227	12	15.2432	0.000103256
2	0	0	1	1	627.405	-0.810441	-0.81186	-0.0658814	1	0.00449601	12	19.1566	5.34865e-05
2	0	0	1	1	631.346	-0.613398	-0.614902	-0.0350852	1	0.00430015	12	23.0974	2.1574e-05
2	1	0	1	1	635.286	-0.416355	-0.417933	-0.00101317	1	0.00422936	12	27.0382	4.23437e-07
2	1	0	1	1	639.205	-0.220413	-0.221983	0.030013	2	0.00428711	12	3.6386	-6.66237e-06
2	1	0	0	1	643.146	-0.0233705	-0.0249368	0.0620918	2	0.00447411	12	7.5796	-1.54837e-06
2	1	0	0	1	647.087	0.173672	0.172101	0.0890635	2	0.00477431	12	11.5204	1.53279e-05
2	1	0	0	1	651.028	0.370714	0.369308	0.117846	2	0.00518434	12	15.4612	4.35215e-05
2	1	0	0	1	654.969	0.567757	0.566259	0.144114	2	0.00570238	12	19.402	8.1606e-05
2	1	0	1	1	658.91	0.764799	0.763252	0.169077	2	0.0063252	12	23.343	0.000129049
2	1	0	1	1	662.85	0.961842	0.960546	0.196411	2	0.00704757	12	27.2838	0.000188662
2	1	0	1	1	666.766	0.842416	0.840937	0.169285	2	0.00777787	12	31.1992	0.000142358
2	1	0	1	1	670.707	0.645374	0.643921	0.139144	2	0.00838081	12	35.14	8.9598e-05
2	1	0	1	1	674.647	0.448331	0.446876	0.106797	2	0.00886054	12	39.0808	4.77252e-05
2	1	0	1	1	678.588	0.251289	0.249745	0.0770693	2	0.0092246	12	43.0216	1.92476e-05
2	1	0	0	1	682.529	0.0542463	0.0527886	0.0509352	2	0.00947674	12	46.9626	2.6888e-06
2	1	0	0	1	686.47	-0.142796	-0.14435	0.0114929	2	0.00960239	12	50.9034	-1.65899e-06
2	0	0	0	1	690.411	-0.339839	-0.341433	-0.0126943	2	0.00959375	12	2.3804	4.33425e-06
2	0	0	0	1	694.352	-0.536881	-0.538305	-0.0343244	2	0.00950074	12	6.3212	1.8477e-05
2	0	0	1	1	698.293	-0.733924	-0.735568	-0.0627815	2	0.00930926	12	10.2622	4.61801e-05
2	0	0	1	1	702.233	-0.930967	-0.932449	-0.0890238	2	0.00900962	12	14.203	8.30102e-05
2	0	0	1	0	706.147	-0.873454	-0.874942	-0.0758815	2	0.00866118	12	18.1162	6.63919e-05
2	0	0	0	0	710.088	-0.676412	-0.677851	-0.0415253	2	0.00843148	12	22.0572	2.8148e-05
2	0	0	0	0	714.028	-0.479369	-0.480941	-0.0127162	2	0.00832373	12	25.998	6.11575e-06
2	1	0	0	0	717.947	-0.283427	-0.284958	0.021162	3	0.00833892	12	2.3184	-6.03029e-06
2	1	0	0	0	721.888	-0.0863841	-0.0879114	0.0521616	3	0.00848261	12	6.2592	-4.5856e-06
2	1	0	1	0	725.829	0.110658	0.10927	0.0798374	3	0.00874208	12	10.2002	8.7238e-06
2	1	0	1	0	729.77	0.307701	0.306246	0.106428	3	0.00910672	12	14.141	3.25932e-05
2	1	0	1	0	733.711	0.504743	0.503176	0.129721	3	0.00957589	12	18.0818	6.52727e-05
2	1	0	1	0	737.651	0.701786	0.700387	0.157997	3	0.0101456	12	22.0226	0.000110659
2	1	0	0	0	741.592	0.898828	0.897366	0.178293	3	0.0108101	12	25.9636	0.000159994
2	1	0	1	0	745.508	0.90543	0.90406	0.174502	3	0.0115279	12	29.8788	0.000157761
2	1	0	1	0	749.448	0.708386	0.706872	0.140407	3	0.0121409	12	33.8197	9.92496e-05
2	1	0	0	0	753.389	0.511345	0.509819	0.109215	3	0.0126324	12	37.7606	5.56801e-05
2	1	0	0	0	757.33	0.314302	0.312784	0.0825369	3	0.0130121	12	41.7014	2.58162e-05
2	1	0	0	0	761.271	0.11726	0.115814	0.0571239	3	0.0132856	12	45.6422	6.61575e-06
2	1	0	1	0	765.212	-0.0797827	-0.081319	0.0252713	3	0.0134478	12	49.5832	-2.05504e-06
2	0	0	1	0	769.153	-0.276825	-0.27827	-0.00589659	3	0.0134698	12	1.3204	1.64084e-06
2	0	0	1	0	773.094	-0.473868	-0.475399	-0.0263047	3	0.0134062	12	5.2612	1.25052e-05
2	0	0	1	0	777.034	-0.67091	-0.672456	-0.0506453	3	0.0132537	12	9.202	3.40567e-05
2	0	0	0	0	780.975	-0.867953	-0.869488	-0.078288	3	0.0129981	12	13.143	6.80705e-05
2	0	0	0	1	784.889	-0.936468	-0.938008	-0.0827675	3	0.0126532	12	17.0562	7.76365e-05
2	0	0	0	1	788.829	-0.739425	-0.740917	-0.0516226	3	0.0123908	12	20.997	3.82481e-05
2	0	0	0	1	792.77	-0.542383	-0.543895	-0.0207706	3	0.0122481	12	24.9378	1.1297e-05
2	1	0	1	1	796.689	-0.34644	-0.347965	0.00979369	4	0.0122237	12	1.0182	-3.40786e-06
2	1	0	1	1	800.63	-0.149398	-0.15092	0.0417488	4	0.0123246	12	4.959	-6.30073e-06
2	1	0	1	1	804.571	0.0476448	0.0462196	0.0701837	4	0.0125448	12	8.8998	3.24386e-06
2	1	0	1	1	808.512	0.244687	0.243222	0.0943883	4	0.0128676	12	12.8406	2.29573e-05
2	1	0	0	1	812.453	0.44173	0.440118	0.118454	4	0.0132922	12	16.7816	5.21339e-05
2	1	0	0	1	816.393	0.638772	0.637227	0.142787	4	0.0138141	12	20.7224	9.09881e-05
[...]
2	0	0	1	0	867.571	-0.802439	-0.803955	-0.0598252	4	0.0161965	12	19.8968	4.80968e-05
2	0	0	1	0	871.512	-0.605396	-0.606896	-0.0306236	4	0.0160204	12	23.8376	1.85854e-05
2	0	0	1	0	875.453	-0.408354	-0.409901	-0.00133124	4	0.0159591	12	27.7784	5.45677e-07
2	1	0	0	0	879.372	-0.212411	-0.213978	0.0299449	5	0.0160182	12	3.7388	-6.40757e-06
2	1	0	0	0	883.313	-0.0153687	-0.0169088	0.060927	5	0.0161992	12	7.6796	-1.0302e-06
2	1	0	0	0	887.254	0.181674	0.180241	0.0838744	5	0.0164838	12	11.6204	1.51176e-05
2	1	0	0	0	891.194	0.378716	0.377219	0.108472	5	0.0168674	12	15.5612	4.09177e-05
2	1	0	1	0	895.135	0.575759	0.574322	0.13269	5	0.0173462	12	19.5022	7.62068e-05
2	1	0	1	0	899.076	0.772801	0.771312	0.155799	5	0.0179133	12	23.443	0.00012017
2	1	0	1	0	903.017	0.969844	0.968382	0.171902	5	0.0185595	12	27.3838	0.000166467
2	1	0	1	0	906.932	0.834415	0.832922	0.14528	5	0.0191937	12	31.2992	0.000121007
2	1	0	1	0	910.873	0.637372	0.635866	0.116717	5	0.0197104	12	35.24	7.42166e-05
2	1	0	1	0	914.814	0.44033	0.438837	0.0933289	5	0.0201199	12	39.1808	4.09562e-05
2	1	0	0	0	918.755	0.243287	0.241779	0.067808	5	0.020431	12	43.1218	1.63946e-05
2	1	0	0	0	922.696	0.0462445	0.044679	0.0417104	5	0.0206468	12	47.0626	1.86358e-06
2	1	0	0	0	926.637	-0.150798	-0.152361	0.00767005	5	0.020749	12	51.0034	-1.16862e-06
2	0	0	0	0	930.577	-0.347841	-0.349376	-0.0122443	5	0.0207318	12	2.9206	4.27788e-06
2	0	0	1	0	934.518	-0.544883	-0.546411	-0.0306871	5	0.020645	12	6.8616	1.67678e-05
2	0	0	1	0	938.459	-0.741926	-0.74342	-0.0564589	5	0.0204677	12	10.8024	4.19727e-05
2	0	0	1	0	942.4	-0.938968	-0.940585	-0.0849112	5	0.0201895	12	14.7432	7.98662e-05
2	0	0	0	1	946.313	-0.865452	-0.867051	-0.068975	5	0.0198707	12	18.6566	5.98048e-05
2	0	0	0	1	950.254	-0.66841	-0.669841	-0.0373654	5	0.0196622	12	22.5974	2.50289e-05
2	0	0	0	1	954.195	-0.471367	-0.472902	-0.0100347	5	0.0195661	12	26.5382	4.74544e-06
2	1	0	0	1	958.114	-0.275425	-0.277006	0.0195444	6	0.0195855	12	2.4784	-5.41393e-06
2	1	0	1	1	962.055	-0.0783824	-0.0799577	0.05121	6	0.0197266	12	6.4194	-4.09463e-06
2	1	0	1	1	965.996	0.11866	0.117155	0.0750105	6	0.0199755	12	10.3602	8.78788e-06
2	1	0	1	1	969.936	0.315703	0.314211	0.0992763	6	0.0203205	12	14.301	3.11937e-05
2	1	0	1	1	973.877	0.512745	0.511238	0.120489	6	0.0207593	12	18.2418	6.15986e-05
2	1	0	0	1	977.818	0.709788	0.708201	0.141712	6	0.0212853	12	22.1828	0.000100361
2	1	0	0	1	981.759	0.90683	0.905496	0.161684	6	0.0218887	12	26.1236	0.000146404
2	1	0	1	1	985.674	0.897428	0.895971	0.149854	6	0.0225242	12	30.0388	0.000134265
2	1	0	0	1	989.615	0.700386	0.698838	0.121172	6	0.0230569	12	33.9798	8.46792e-05
2	1	0	0	1	993.556	0.503343	0.50192	0.0973924	6	0.0234825	12	37.9206	4.88832e-05
2	1	0	0	1	997.497	0.306301	0.304901	0.0732301	6	0.0238117	12	41.8614	2.2328e-05
2	1	0	0	1	1001.44	0.109258	0.107801	0.0506181	6	0.0240494	12	45.8022	5.45668e-06
2	1	0	1	1	1005.38	-0.0877844	-0.0894276	0.0180505	6	0.0241884	12	49.7432	-1.61421e-06
2	0	0	1	1	1009.32	-0.284827	-0.286439	-0.00825188	6	0.0241988	12	1.8204	2.36366e-06
2	1	0	1	1	1013.26	-0.48187	-0.483297	-0.0233245	6	0.0241386	12	5.7612	1.12727e-05
2	0	0	1	1	1017.2	-0.678912	-0.680442	-0.0479848	6	0.0239962	12	9.702	3.26509e-05
2	0	0	0	1	1021.14	-0.875955	-0.877555	-0.0736151	6	0.0237571	12	13.643	6.46013e-05
2	0	0	0	0	1025.06	-0.928466	-0.929992	-0.0750222	6	0.0234364	12	17.5562	6.97701e-05
2	0	0	0	0	1029	-0.731424	-0.73293	-0.0470757	6	0.0231962	12	21.497	3.45032e-05
2	0	0	1	0	1032.94	-0.534381	-0.535887	-0.0188957	6	0.0230669	12	25.438	1.0126e-05
2	1	0	0	0	1036.48	-0.357092	-0.359102	0.0130726	6	0.0230455	12	0.8438	-4.69439e-06

File: resorufin_10x_frittedTiCt_FTOWE_AgAgClref_N2sparge_3_12_CV_C12.txt
EC-Lab ASCII FILE
Nb header lines : 59

Cyclic Voltammetry

Run on channel : 12 (SN 15159)
User :
CE vs. WE compliance from -10 V to 10 V
Electrode connection : standard
Potential control : Ewe
Ewe ctrl range : min = -2.50 V, max = 2.50 V
Safety Limits :
	Do not start on E overload
Acquisition started on : 06/27/2024 22:37:21.030
Technique started on : 06/27/2024 22:55:07.648
Loaded Setting File :  NONE
Saved on :
	File : resorufin_10x_frittedTiCt_FTOWE_AgAgClref_N2sparge_3_12_CV_C12.mpr
	Directory : C:\Users\user\OneDrive - California Institute of Technology\Desktop\Big James\06272024_resorufin_spEC_test\
	Host : 10.8.34.190
Device : VMP3 (SN 1026)
Address : 131.215.231.69
EC-Lab for windows v11.50 (software)
Internet server v11.52 (firmware)
Command interpretor v11.50 (firmware)
Electrode material : Au/Pd
Initial state :
Electrolyte : NaCl (0.2M)
Comments : Fe(CN)63-/Fe(CN)64- 5.10-3 M
Reference electrode : SCE Saturated Calomel Electrode (0.241 V)
Electrode surface area : 0.001 cm²
Characteristic mass : 0.001 g
Equivalent Weight : 0.000 g/eq.
Density : 0.000 g/cm3
Volume (V) : 0.001 cm³
Cycle Definition : Charge/Discharge alternance
Ei (V)              0.000
vs.                 Eoc
dE/dt               25.000
dE/dt unit          mV/s
E1 (V)              1.000
vs.                 Ref
Step percent        50
N                   10
E range min (V)     -2.500
E range max (V)     2.500
I Range             Auto
I Range min         Unset
I Range max         Unset
I Range init        Unset
Bandwidth           5
E2 (V)              -1.000
vs.                 Ref
nc cycles           5
Reverse Scan        1
Ef (V)              0.000
vs.                 Eoc

mode	ox/red	error	control changes	counter inc.	time/s	control/V	Ewe/V	<I>/mA	cycle number	(Q-Qo)/C	I Range	step time/s	P/W
2	0	0	0	0	1066.62	-0.367795	-0.369415	-0.00801065	1	0.0000000E+000	13	0.000000000000000E+000	2.95926e-06
2	1	0	0	0	1074.48	-0.171202	-0.172798	0.0333283	1	0.000131386	13	7.8016	-5.75907e-06
2	1	0	1	0	1082.36	0.0258401	0.0244182	0.0598569	1	0.000497045	13	15.6834	1.4616e-06
2	1	0	1	0	1090.25	0.222883	0.22127	0.0831663	1	0.00106568	13	23.565	1.84022e-05
2	1	0	0	0	1098.16	0.420625	0.419227	0.106773	1	0.00182202	12	31.4748	4.4762e-05
2	1	0	0	0	1106.04	0.617668	0.616206	0.123707	1	0.00273208	12	39.3564	7.6229e-05
2	1	0	1	0	1113.92	0.81471	0.813184	0.137813	1	0.00376675	12	47.2382	0.000112067
2	1	0	0	0	1121.75	0.989448	0.988041	0.145332	1	0.00488917	12	55.0724	0.000143594
2	1	0	0	0	1129.63	0.792405	0.790996	0.116536	1	0.0059139	12	62.954	9.21794e-05
2	1	0	1	0	1137.52	0.595363	0.593936	0.0933282	1	0.00673686	12	70.8358	5.5431e-05
2	1	0	1	0	1145.4	0.39832	0.396829	0.0731145	1	0.00738904	12	78.7174	2.90139e-05
2	1	0	0	0	1153.28	0.201278	0.199733	0.053432	1	0.00788449	12	86.5992	1.06721e-05
2	1	0	0	0	1161.19	0.00343532	0.00203311	0.0318947	1	0.00822422	13	94.5128	6.48454e-08
2	0	0	1	0	1169.07	-0.193607	-0.195126	0.00546399	1	0.0083711	13	102.395	-1.06616e-06
2	0	0	1	0	1176.96	-0.39065	-0.392082	-0.0109263	1	0.008347	13	4.761	4.28401e-06
2	0	0	0	0	1184.84	-0.587692	-0.589163	-0.0329139	1	0.00817406	13	12.6428	1.93916e-05
2	0	0	1	0	1192.72	-0.784735	-0.786146	-0.0564132	1	0.00782225	13	20.5245	4.4349e-05
2	0	0	1	0	1200.6	-0.981778	-0.98337	-0.0833002	1	0.00727357	13	28.4062	8.19149e-05
2	0	0	0	1	1208.44	-0.822443	-0.823985	-0.0567469	1	0.00671499	13	36.2404	4.67586e-05
2	0	0	0	1	1216.32	-0.625401	-0.62683	-0.0290013	1	0.00637911	13	44.122	1.81789e-05
2	0	0	1	1	1224.2	-0.428358	-0.429835	-0.00122269	1	0.00625916	13	52.0038	5.25555e-07
2	1	0	1	1	1232.02	-0.232916	-0.23442	0.0269006	2	0.00635653	13	7.2575	-6.30602e-06
2	1	0	0	1	1239.9	-0.0358732	-0.0373967	0.0539211	2	0.00667329	13	15.1393	-2.01647e-06
2	1	0	0	1	1247.78	0.161169	0.159721	0.0769995	2	0.00719129	13	23.0209	1.22984e-05
2	1	0	1	1	1255.69	0.358912	0.357474	0.100389	2	0.00789676	12	30.9307	3.58863e-05
2	1	0	1	1	1263.57	0.555954	0.554426	0.11755	2	0.00875947	12	38.8123	6.5173e-05
2	1	0	0	1	1271.45	0.752997	0.751474	0.132201	2	0.00974754	12	46.6941	9.93459e-05
2	1	0	0	1	1279.34	0.950039	0.948616	0.141504	2	0.010827	12	54.5757	0.000134233
2	1	0	0	1	1287.16	0.854419	0.852964	0.120017	2	0.0118731	12	62.3981	0.00010237
2	1	0	0	1	1295.04	0.657376	0.655921	0.0962088	2	0.0127202	12	70.2797	6.31054e-05
2	1	0	1	1	1302.92	0.460334	0.458839	0.0754429	2	0.0133944	12	78.1615	3.46161e-05
2	1	0	1	1	1310.8	0.263291	0.261806	0.0564588	2	0.0139147	12	86.0431	1.47812e-05
2	1	0	0	1	1318.71	0.0655487	0.0640252	0.0373347	2	0.0142878	13	93.9529	2.39036e-06
2	1	0	0	1	1326.59	-0.131494	-0.132998	0.012707	2	0.0144923	13	101.834	-1.69e-06
2	0	0	1	1	1334.48	-0.328536	-0.330134	-0.00606015	2	0.0145112	13	2.2806	2.00066e-06
2	0	0	1	1	1342.36	-0.525579	-0.527116	-0.0236252	2	0.0143941	13	10.1622	1.24532e-05
2	0	0	0	1	1350.24	-0.722622	-0.724207	-0.0464856	2	0.0141126	13	18.044	3.36652e-05
2	0	0	0	1	1358.12	-0.919664	-0.921176	-0.0723589	2	0.0136438	13	25.9256	6.66553e-05
2	0	0	1	0	1365.96	-0.884457	-0.886155	-0.0650185	2	0.0130564	13	33.7638	5.76164e-05
2	0	0	0	0	1373.84	-0.687414	-0.689052	-0.0368251	2	0.0126621	13	41.6456	2.53744e-05
2	0	0	0	0	1381.72	-0.490371	-0.491939	-0.00931862	2	0.0124797	13	49.5272	4.58419e-06
2	1	0	1	0	1389.54	-0.294929	-0.296639	0.0168143	3	0.0125076	13	4.697	-4.98778e-06
2	1	0	1	0	1397.42	-0.0978866	-0.0994779	0.0433419	3	0.0127519	13	12.5786	-4.31156e-06
2	1	0	0	0	1405.3	0.099156	0.0976393	0.0675361	3	0.0131985	13	20.4604	6.59418e-06
2	1	0	0	0	1413.19	0.296198	0.294742	0.0897619	3	0.0138276	13	28.342	2.64566e-05
2	1	0	1	0	1421.09	0.493941	0.492446	0.108621	3	0.0146226	12	36.2518	5.34898e-05
2	1	0	1	0	1428.98	0.690984	0.689543	0.122693	3	0.0155418	12	44.1334	8.46021e-05
2	1	0	0	0	1436.86	0.888026	0.886624	0.133166	3	0.0165533	12	52.0152	0.000118068
2	1	0	1	0	1444.68	0.916432	0.915007	0.122911	3	0.0175898	12	59.8374	0.000112464
2	1	0	0	0	1452.56	0.71939	0.717963	0.0972975	3	0.0184543	12	67.7192	6.9856e-05
2	1	0	0	0	1460.44	0.522347	0.520904	0.0774668	3	0.0191428	12	75.6008	4.03528e-05
2	1	0	1	0	1468.33	0.325305	0.323822	0.0598669	3	0.0196809	12	83.4826	1.93862e-05
2	1	0	1	0	1476.24	0.127462	0.125933	0.0418116	3	0.0200807	13	91.3962	5.26547e-06
2	1	0	0	0	1484.12	-0.0695805	-0.0711255	0.0211836	3	0.0203306	13	99.278	-1.50669e-06
2	0	0	0	0	1492	-0.266623	-0.268144	0.000946025	3	0.020397	13	0.000000000000000E+000	-2.53671e-07
2	0	0	1	0	1499.88	-0.463666	-0.465185	-0.0168879	3	0.0203283	13	7.5618	7.85601e-06
2	0	0	1	0	1507.77	-0.660708	-0.662172	-0.0385408	3	0.0201101	13	15.4434	2.55206e-05
2	0	0	0	0	1515.65	-0.857751	-0.859273	-0.0620318	3	0.0197147	13	23.3252	5.33023e-05
2	0	0	1	1	1523.48	-0.946472	-0.948098	-0.0733389	3	0.0191402	13	31.1593	6.95325e-05
2	0	0	1	1	1531.36	-0.749427	-0.751046	-0.0451632	3	0.0186864	13	39.041	3.39196e-05
2	0	0	0	1	1539.25	-0.552385	-0.554039	-0.0190696	3	0.0184431	13	46.9228	1.05653e-05
2	1	0	0	1	1547.06	-0.356943	-0.358552	0.00711746	4	0.0184053	13	2.2564	-2.55198e-06
2	1	0	1	1	1554.94	-0.159899	-0.161384	0.0357847	4	0.0185791	13	10.1381	-5.77509e-06
2	1	0	1	1	1562.83	0.0371426	0.0357852	0.0596679	4	0.018957	13	18.0198	2.13523e-06
2	1	0	0	1	1570.71	0.234185	0.232558	0.0820398	4	0.0195177	13	25.9016	1.9079e-05
2	1	0	0	1	1578.62	0.431928	0.430494	0.100464	4	0.0202455	12	33.8112	4.32493e-05
[...]
2	0	0	0	0	1688.89	-0.811441	-0.812922	-0.052524	4	0.0244557	13	36.4442	4.26979e-05
2	0	0	1	0	1696.77	-0.614398	-0.61595	-0.0258914	4	0.0241528	13	44.326	1.59478e-05
2	0	0	1	0	1704.65	-0.417356	-0.418912	-0.000250093	4	0.0240521	13	0.000000000000000E+000	1.04767e-07
2	1	0	0	0	1712.47	-0.221913	-0.223502	0.0259512	5	0.0241573	13	7.7778	-5.80015e-06
2	1	0	0	0	1720.35	-0.0248708	-0.0263872	0.0523251	5	0.0244683	13	15.6594	-1.38072e-06
2	1	0	1	0	1728.23	0.172172	0.170708	0.0733434	5	0.0249645	13	23.5412	1.25203e-05
2	1	0	1	0	1736.11	0.369214	0.367746	0.092409	5	0.0256256	13	31.4228	3.39831e-05
2	1	0	0	0	1744.02	0.566957	0.565518	0.10881	5	0.0264281	12	39.3326	6.15338e-05
2	1	0	0	0	1751.9	0.763999	0.762524	0.117972	5	0.0273251	12	47.2142	8.99565e-05
2	1	0	1	0	1759.79	0.961042	0.959621	0.124279	5	0.0282841	12	55.096	0.000119261
2	1	0	0	0	1767.61	0.843416	0.841946	0.101619	5	0.0291818	12	62.9182	8.55581e-05
2	1	0	1	0	1775.49	0.646374	0.644861	0.0807771	5	0.0298985	12	70.8	5.209e-05
2	1	0	1	0	1783.37	0.449331	0.447818	0.0642595	5	0.0304685	12	78.6816	2.87766e-05
2	1	0	0	0	1791.25	0.252289	0.250826	0.048099	5	0.0309106	12	86.5634	1.20645e-05
2	1	0	0	0	1799.16	0.0545463	0.053057	0.032526	5	0.0312273	13	94.473	1.72573e-06
2	0	0	1	0	1807.04	-0.142496	-0.144128	0.0101004	5	0.0313972	13	102.355	-1.45575e-06
2	0	0	1	0	1814.93	-0.339539	-0.341025	-0.0066967	5	0.0314104	13	2.4804	2.28374e-06
2	0	0	0	0	1822.81	-0.536581	-0.53801	-0.022416	5	0.0312972	13	10.3622	1.206e-05
2	0	0	0	0	1830.69	-0.733624	-0.735133	-0.0440412	5	0.0310317	13	18.2438	3.23762e-05
2	0	0	1	0	1838.57	-0.930666	-0.932272	-0.0705161	5	0.0305845	13	26.1256	6.57402e-05
2	0	0	0	1	1846.41	-0.873454	-0.874937	-0.0583872	5	0.0300269	13	33.9638	5.10851e-05
2	0	0	0	1	1854.29	-0.676412	-0.677851	-0.0330306	5	0.0296649	13	41.8454	2.23898e-05
2	0	0	1	1	1862.17	-0.479369	-0.480988	-0.00826597	5	0.0295033	13	49.7272	3.97583e-06
2	1	0	1	1	1869.99	-0.283927	-0.28556	0.0171017	6	0.0295423	13	5.2572	-4.88356e-06
2	1	0	0	1	1877.87	-0.0868842	-0.0883836	0.0435694	6	0.0297863	13	13.139	-3.85082e-06
2	1	0	0	1	1885.75	0.110158	0.108706	0.0655226	6	0.0302184	13	21.0206	7.12271e-06
2	1	0	1	1	1893.64	0.307201	0.305663	0.0852424	6	0.0308175	13	28.9024	2.60554e-05
2	1	0	1	1	1901.55	0.504943	0.503439	0.101209	6	0.0315611	12	36.812	5.09528e-05
2	1	0	0	1	1909.43	0.701986	0.70056	0.111715	6	0.032407	12	44.6938	7.82631e-05
2	1	0	0	1	1917.31	0.899028	0.897692	0.119064	6	0.03332	12	52.5754	0.000106882
2	1	0	1	1	1925.13	0.90543	0.903994	0.106239	6	0.0342306	12	60.3976	9.60394e-05
2	1	0	0	1	1933.01	0.708387	0.706899	0.0845037	6	0.0349772	12	68.2794	5.97356e-05
2	1	0	1	1	1940.89	0.511346	0.509824	0.0671402	6	0.0355745	12	76.1611	3.42297e-05
2	1	0	1	1	1948.78	0.314302	0.312918	0.0531339	6	0.0360449	12	84.0428	1.66265e-05
2	1	0	0	1	1956.69	0.11656	0.115208	0.0359172	6	0.036395	13	91.9526	4.13796e-06
2	1	0	0	1	1964.57	-0.0804828	-0.0821796	0.0170049	6	0.0366124	13	99.8342	-1.39745e-06
2	1	0	1	1	1972.45	-0.277525	-0.2791	-0.000574533	6	0.0366676	13	0.04	1.60352e-07
2	0	0	1	1	1980.33	-0.474568	-0.47604	-0.016619	6	0.0365976	13	7.9216	7.91132e-06
2	0	0	0	1	1988.21	-0.671611	-0.673107	-0.0365106	6	0.0363882	13	15.8034	2.45756e-05
2	0	0	0	1	1996.09	-0.868653	-0.87016	-0.0606173	6	0.0360087	13	23.685	5.27467e-05
2	0	0	1	0	2003.93	-0.935468	-0.936954	-0.067319	6	0.0354534	13	31.5232	6.30748e-05
2	0	0	1	0	2011.81	-0.738426	-0.739978	-0.0413365	6	0.0350319	13	39.4049	3.05881e-05
2	0	0	0	0	2019.7	-0.541382	-0.543075	-0.0170265	6	0.0348112	13	47.2866	9.24666e-06
2	1	0	1	0	2026.6	-0.368595	-0.370256	0.00607961	6	0.0347793	13	1.8672	-2.25101e-06