Folder: RzSpEC-project/resorufin_10x_frittedTiCt_FTOWE_AgAgClref_N2sparge_3_16_CV_C12 (part 5)

File: resorufin_10x_frittedTiCt_FTOWE_AgAgClref_N2sparge_3_18_CV_C12.txt
EC-Lab ASCII FILE
Nb header lines : 59

Cyclic Voltammetry

Run on channel : 12 (SN 15159)
User :
CE vs. WE compliance from -10 V to 10 V
Electrode connection : standard
Potential control : Ewe
Ewe ctrl range : min = -2.50 V, max = 2.50 V
Safety Limits :
	Do not start on E overload
Acquisition started on : 06/27/2024 22:37:21.030
Technique started on : 06/28/2024 00:52:38.084
Loaded Setting File :  NONE
Saved on :
	File : resorufin_10x_frittedTiCt_FTOWE_AgAgClref_N2sparge_3_18_CV_C12.mpr
	Directory : C:\Users\user\OneDrive - California Institute of Technology\Desktop\Big James\06272024_resorufin_spEC_test\
	Host : 10.8.34.190
Device : VMP3 (SN 1026)
Address : 131.215.231.69
EC-Lab for windows v11.50 (software)
Internet server v11.52 (firmware)
Command interpretor v11.50 (firmware)
Electrode material : Au/Pd
Initial state :
Electrolyte : NaCl (0.2M)
Comments : Fe(CN)63-/Fe(CN)64- 5.10-3 M
Reference electrode : SCE Saturated Calomel Electrode (0.241 V)
Electrode surface area : 0.001 cm²
Characteristic mass : 0.001 g
Equivalent Weight : 0.000 g/eq.
Density : 0.000 g/cm3
Volume (V) : 0.001 cm³
Cycle Definition : Charge/Discharge alternance
Ei (V)              0.000
vs.                 Eoc
dE/dt               3.000
dE/dt unit          mV/s
E1 (V)              1.000
vs.                 Ref
Step percent        50
N                   10
E range min (V)     -2.500
E range max (V)     2.500
I Range             Auto
I Range min         Unset
I Range max         Unset
I Range init        Unset
Bandwidth           5
E2 (V)              -1.000
vs.                 Ref
nc cycles           5
Reverse Scan        1
Ef (V)              0.000
vs.                 Eoc

mode	ox/red	error	control changes	counter inc.	time/s	control/V	Ewe/V	<I>/mA	cycle number	(Q-Qo)/C	I Range	step time/s	P/W
2	0	0	1	0	8117.05	-0.43881	-0.440406	-0.0124646	1	0.0000000E+000	13	0.000000000000000E+000	5.48948e-06
2	1	0	1	0	8182.92	-0.241218	-0.242833	0.0174573	1	0.000588267	13	64.6806	-4.2392e-06
2	1	0	1	0	8248.93	-0.0431748	-0.0452729	0.0308904	1	0.00222812	13	130.695	-1.3985e-06
2	1	0	1	0	8314.95	0.154868	0.154022	0.0310368	1	0.00434587	13	196.709	4.78034e-06
2	1	0	1	0	8380.96	0.352911	0.351241	0.0328874	1	0.00642063	13	262.723	1.15514e-05
2	1	0	1	0	8446.98	0.550953	0.549124	0.0385088	1	0.00877269	13	328.738	2.11461e-05
2	1	0	1	0	8512.99	0.748996	0.747724	0.0444226	1	0.0115113	13	394.752	3.32158e-05
2	1	0	1	0	8579	0.947039	0.945941	0.049898	1	0.0146304	13	460.766	4.72006e-05
2	1	0	1	0	8644.52	0.85642	0.854812	0.0452498	1	0.0178246	13	526.281	3.868e-05
2	1	0	1	0	8710.53	0.658377	0.65673	0.0385206	1	0.0205859	13	592.295	2.52976e-05
2	1	0	1	0	8776.55	0.460334	0.4587	0.0321795	1	0.0229184	13	658.309	1.47607e-05
2	1	0	1	0	8842.56	0.262291	0.261475	0.0255945	1	0.0248234	13	724.323	6.69232e-06
2	1	0	1	0	8908.58	0.0642484	0.0626172	0.0182331	1	0.0262703	13	790.338	1.1417e-06
2	0	0	1	0	8974.59	-0.133794	-0.135273	0.00911566	1	0.0271849	13	856.352	-1.2331e-06
2	1	0	1	0	9040.6	-0.331837	-0.333237	0.000418039	1	0.0274947	13	922.366	-1.39306e-07
2	0	0	1	0	9106.62	-0.52988	-0.5311	-0.0110708	1	0.027167	13	63.3471	5.87968e-06
2	0	0	1	0	9172.63	-0.727923	-0.729637	-0.0272769	1	0.0259165	13	129.361	1.99022e-05
2	0	0	1	0	9238.65	-0.925966	-0.927676	-0.0489178	1	0.0234482	13	195.376	4.53799e-05
2	0	0	1	1	9304.19	-0.877455	-0.878627	-0.0408239	1	0.02007	13	260.924	3.5869e-05
2	0	0	1	1	9370.21	-0.679412	-0.681177	-0.0178918	1	0.0181624	13	326.938	1.21875e-05
2	0	0	1	1	9436.22	-0.48137	-0.482646	0.00115557	1	0.0176182	13	3.6674	-5.57729e-07
2	1	0	1	1	9501.64	-0.285127	-0.286659	0.0165689	2	0.0182169	13	69.0816	-4.74962e-06
2	1	0	1	1	9567.65	-0.0870843	-0.0881619	0.029761	2	0.0197773	13	135.096	-2.62379e-06
2	1	0	1	1	9633.67	0.110959	0.109711	0.0327026	2	0.0219461	13	201.11	3.58784e-06
2	1	0	1	1	9699.68	0.309001	0.307638	0.0277606	2	0.0239073	13	267.124	8.5402e-06
2	1	0	1	1	9765.69	0.507044	0.505157	0.0279957	2	0.025736	13	333.139	1.41422e-05
2	1	0	1	1	9831.71	0.705086	0.704008	0.0300856	2	0.0276424	13	399.153	2.11805e-05
2	1	0	1	1	9897.72	0.90313	0.901886	0.0332456	2	0.0297306	13	465.167	2.99838e-05
2	1	0	1	1	9963.2	0.900429	0.898753	0.0319005	2	0.0319333	13	530.648	2.86707e-05
2	1	0	1	1	10029.2	0.702386	0.700997	0.027297	2	0.0338811	13	596.662	1.91351e-05
2	1	0	1	1	10095.2	0.504343	0.503298	0.0228653	2	0.0355389	13	662.677	1.15081e-05
2	1	0	1	1	10161.2	0.306301	0.304639	0.0183841	2	0.0369043	13	728.691	5.60051e-06
2	1	0	1	1	10227.3	0.108258	0.10687	0.0135574	2	0.037957	13	794.705	1.44888e-06
2	1	0	1	1	10293.3	-0.0897848	-0.0914416	0.00747041	2	0.0386597	13	860.719	-6.83106e-07
2	0	0	1	1	10359.3	-0.287828	-0.289708	0.00163448	2	0.038922	13	926.734	-4.73523e-07
2	0	0	1	1	10425.3	-0.48587	-0.487534	-0.00637056	2	0.0387806	13	51.3444	3.10587e-06
2	0	0	1	1	10491.3	-0.683913	-0.685352	-0.0198247	2	0.0379402	13	117.359	1.35869e-05
2	0	0	1	1	10557.3	-0.881956	-0.883146	-0.038518	2	0.0360476	13	183.373	3.4017e-05
2	0	0	1	0	10622.9	-0.921465	-0.923148	-0.0424747	2	0.032972	13	248.921	3.92104e-05
2	0	0	1	0	10688.9	-0.723422	-0.72523	-0.0203868	2	0.0309383	13	314.935	1.47851e-05
2	1	0	1	0	10754.9	-0.525379	-0.52699	-0.00255202	2	0.0302	13	380.949	1.34489e-06
2	0	0	1	0	10820.9	-0.327336	-0.329391	0.0121632	3	0.0305426	13	56.0121	-4.00647e-06
2	1	0	1	0	10886.9	-0.129293	-0.130951	0.0229691	3	0.0317319	13	122.026	-3.00782e-06
2	1	0	1	0	10953	0.0687494	0.0667733	0.0249762	3	0.0334061	13	188.041	1.66774e-06
2	1	0	1	0	11019	0.266792	0.265101	0.0201837	3	0.0348787	13	254.055	5.35072e-06
2	1	0	1	0	11085	0.464835	0.463587	0.0197759	3	0.0361834	13	320.069	9.16784e-06
2	1	0	1	0	11151	0.662878	0.661526	0.020701	3	0.037514	13	386.083	1.36942e-05
2	1	0	1	0	11217	0.86092	0.859478	0.022256	3	0.038931	13	452.098	1.91285e-05
2	1	0	1	0	11282.6	0.942438	0.941195	0.0223093	3	0.0404325	13	517.645	2.09974e-05
2	1	0	1	0	11348.6	0.744395	0.743091	0.0192968	3	0.0417998	13	583.66	1.43392e-05
2	1	0	1	0	11414.6	0.546352	0.544675	0.0165529	3	0.0429795	13	649.674	9.01596e-06
2	1	0	1	0	11480.6	0.348309	0.346966	0.0137597	3	0.0439799	13	715.688	4.77412e-06
2	0	0	1	0	11546.6	0.150267	0.149608	0.0108103	3	0.0447871	13	781.702	1.6173e-06
2	0	0	1	0	11612.6	-0.0477756	-0.0491584	0.00683918	3	0.0453683	13	847.717	-3.36203e-07
2	0	0	1	0	11678.6	-0.245819	-0.246745	0.0020191	3	0.0456088	13	913.731	-4.98203e-07
2	0	0	1	0	11744.7	-0.443861	-0.445492	-0.0034297	3	0.0455692	13	39.3418	1.5279e-06
2	0	0	1	0	11810.7	-0.641904	-0.643285	-0.0141662	3	0.0450166	13	105.356	9.11291e-06
2	0	0	1	0	11876.7	-0.839947	-0.841645	-0.0303819	3	0.0435763	13	171.37	2.55707e-05
2	0	0	1	1	11942.2	-0.963474	-0.965195	-0.0438962	3	0.0409085	13	236.918	4.23683e-05
2	0	0	1	1	12008.2	-0.765431	-0.766878	-0.0222151	3	0.0387741	13	302.933	1.70362e-05
2	1	0	1	1	12074.3	-0.567388	-0.568903	-0.0056729	3	0.037877	13	368.947	3.22733e-06
2	1	0	1	1	12140.3	-0.369345	-0.371319	0.00806529	4	0.0379902	13	41.6756	-2.9948e-06
2	1	0	1	1	12206.3	-0.171303	-0.173108	0.0176225	4	0.0388713	13	107.69	-3.05058e-06
2	1	0	1	1	12272.3	0.0267404	0.0250219	0.0203577	4	0.0401811	13	173.704	5.0939e-07
2	1	0	1	1	12338.3	0.224783	0.222325	0.0176265	4	0.0414404	13	239.718	3.91882e-06
2	1	0	1	1	12404.3	0.422826	0.421254	0.0170594	4	0.0425806	13	305.733	7.18633e-06
2	1	0	1	1	12470.3	0.620869	0.619181	0.0176128	4	0.0437225	13	371.747	1.09055e-05
[...]
2	0	0	1	0	13327.6	-0.80744	-0.809332	-0.0244483	4	0.044901	13	292.264	1.97868e-05
2	0	0	1	0	13393.6	-0.609397	-0.611279	-0.00835797	4	0.0438449	13	358.278	5.10905e-06
2	0	0	1	0	13459.6	-0.411355	-0.413014	0.0048974	5	0.0437549	13	27.0058	-2.0227e-06
2	1	0	1	0	13525.6	-0.213312	-0.215295	0.0137319	5	0.0444004	13	93.0201	-2.95642e-06
2	1	0	1	0	13591.7	-0.0152687	-0.0164653	0.0173828	5	0.0454644	13	159.034	-2.86213e-07
2	1	0	1	0	13657.7	0.182774	0.181373	0.0158072	5	0.0465765	13	225.049	2.867e-06
2	1	0	1	0	13723.7	0.380817	0.379481	0.0145472	5	0.0475707	13	291.063	5.52037e-06
2	1	0	1	0	13789.7	0.57886	0.577618	0.0146394	5	0.0485291	13	357.077	8.456e-06
2	1	0	1	0	13855.7	0.776902	0.775152	0.0151144	5	0.0495083	13	423.091	1.1716e-05
2	1	0	1	0	13921.7	0.974945	0.973492	0.0164338	5	0.0505481	13	489.106	1.59982e-05
2	1	0	1	0	13987.3	0.828413	0.826798	0.0141099	5	0.0515615	13	554.654	1.1666e-05
2	1	0	1	0	14053.3	0.63037	0.628692	0.0117108	5	0.0524135	13	620.668	7.36247e-06
2	1	0	1	0	14119.3	0.432328	0.430497	0.0097076	5	0.0531186	13	686.682	4.1791e-06
2	1	0	1	0	14185.3	0.234285	0.232853	0.0075865	5	0.0536889	13	752.696	1.76654e-06
2	1	0	1	0	14251.3	0.0362423	0.0346922	0.0052797	5	0.0541142	13	818.711	1.83164e-07
2	0	0	1	0	14317.3	-0.1618	-0.163549	0.000843325	5	0.0543283	13	884.725	-1.37925e-07
2	0	0	1	0	14383.4	-0.359843	-0.361549	-0.000884168	5	0.0543354	13	23.3384	3.1967e-07
2	0	0	1	0	14449.4	-0.557886	-0.559171	-0.00667125	5	0.0541159	13	89.3527	3.73037e-06
2	0	0	1	0	14515.4	-0.755929	-0.757166	-0.0183704	5	0.0533201	13	155.367	1.39095e-05
2	0	0	1	0	14581.4	-0.953971	-0.955406	-0.0362591	5	0.0515574	13	221.381	3.46421e-05
2	0	0	1	1	14647	-0.849449	-0.850796	-0.0260848	5	0.0492751	13	286.929	2.21928e-05
2	0	0	1	1	14713	-0.651406	-0.65304	-0.0106139	5	0.0480885	13	352.943	6.93131e-06
2	0	0	1	1	14779	-0.453364	-0.454608	0.0022123	5	0.0478244	13	12.336	-1.00573e-06
2	1	0	1	1	14844.4	-0.257121	-0.258508	0.0103462	6	0.0482588	13	77.7502	-2.67457e-06
2	1	0	1	1	14910.4	-0.0590783	-0.0604461	0.0139413	6	0.04909	13	143.764	-8.42696e-07
2	1	0	1	1	14976.4	0.138965	0.137588	0.0134033	6	0.0500116	13	209.779	1.84413e-06
2	1	0	1	1	15042.4	0.337007	0.335496	0.0124047	6	0.0508588	13	275.793	4.16172e-06
2	1	0	1	1	15108.5	0.53505	0.533466	0.0126093	6	0.0516811	13	341.807	6.72665e-06
2	1	0	1	1	15174.5	0.733093	0.731656	0.0132204	6	0.0525332	13	407.821	9.67282e-06
2	1	0	1	1	15240.5	0.931136	0.92878	0.013995	6	0.0534319	13	473.836	1.29983e-05
2	1	0	1	1	15306	0.872423	0.871195	0.0126509	6	0.0543255	13	539.317	1.10214e-05
2	1	0	1	1	15372	0.67438	0.672842	0.0106706	6	0.0550907	13	605.331	7.17961e-06
2	1	0	1	1	15438	0.476337	0.474983	0.00881418	6	0.0557334	13	671.346	4.18658e-06
2	1	0	1	1	15504	0.278295	0.275928	0.00684655	6	0.0562511	13	737.36	1.88916e-06
2	1	0	1	1	15570	0.0802519	0.0794581	0.00496812	6	0.0566453	13	803.374	3.94757e-07
2	1	0	1	1	15636	-0.117791	-0.11922	0.00146779	6	0.0568771	13	869.388	-1.7499e-07
2	1	0	1	1	15702	-0.315834	-0.317459	-0.000389887	6	0.0568908	13	14.003	1.23773e-07
2	0	0	1	1	15768.1	-0.513876	-0.515347	-0.00425491	6	0.0567573	13	80.0173	2.19275e-06
2	0	0	1	1	15834.1	-0.711919	-0.713339	-0.0135807	6	0.0561969	13	146.032	9.68762e-06
2	0	0	1	1	15900.1	-0.909962	-0.91199	-0.0285044	6	0.0548337	13	212.046	2.59957e-05
2	0	0	1	0	15965.6	-0.893459	-0.895325	-0.0277322	6	0.0526712	13	277.594	2.48293e-05
2	0	0	1	0	16031.7	-0.695416	-0.6967	-0.0126004	6	0.0513656	13	343.608	8.77871e-06
2	1	0	1	0	16097.7	-0.497373	-0.499933	-0.000652325	6	0.0509412	13	409.622	3.26119e-07
2	1	0	1	0	16117.2	-0.43881	-0.44096	0.00545878	6	0.0509612	13	0.000000000000000E+000	-2.4071e-06

File: resorufin_10x_frittedTiCt_FTOWE_AgAgClref_N2sparge_3_20_CV_C12.txt
EC-Lab ASCII FILE
Nb header lines : 59

Cyclic Voltammetry

Run on channel : 12 (SN 15159)
User :
CE vs. WE compliance from -10 V to 10 V
Electrode connection : standard
Potential control : Ewe
Ewe ctrl range : min = -2.50 V, max = 2.50 V
Safety Limits :
	Do not start on E overload
Acquisition started on : 06/27/2024 22:37:21.030
Technique started on : 06/28/2024 03:06:28.386
Loaded Setting File :  NONE
Saved on :
	File : resorufin_10x_frittedTiCt_FTOWE_AgAgClref_N2sparge_3_20_CV_C12.mpr
	Directory : C:\Users\user\OneDrive - California Institute of Technology\Desktop\Big James\06272024_resorufin_spEC_test\
	Host : 10.8.34.190
Device : VMP3 (SN 1026)
Address : 131.215.231.69
EC-Lab for windows v11.50 (software)
Internet server v11.52 (firmware)
Command interpretor v11.50 (firmware)
Electrode material : Au/Pd
Initial state :
Electrolyte : NaCl (0.2M)
Comments : Fe(CN)63-/Fe(CN)64- 5.10-3 M
Reference electrode : SCE Saturated Calomel Electrode (0.241 V)
Electrode surface area : 0.001 cm²
Characteristic mass : 0.001 g
Equivalent Weight : 0.000 g/eq.
Density : 0.000 g/cm3
Volume (V) : 0.001 cm³
Cycle Definition : Charge/Discharge alternance
Ei (V)              0.000
vs.                 Eoc
dE/dt               1.000
dE/dt unit          mV/s
E1 (V)              1.000
vs.                 Ref
Step percent        50
N                   10
E range min (V)     -2.500
E range max (V)     2.500
I Range             Auto
I Range min         Unset
I Range max         Unset
I Range init        Unset
Bandwidth           5
E2 (V)              -1.000
vs.                 Ref
nc cycles           5
Reverse Scan        1
Ef (V)              0.000
vs.                 Eoc

mode	ox/red	error	control changes	counter inc.	time/s	control/V	Ewe/V	<I>/mA	cycle number	(Q-Qo)/C	I Range	step time/s	P/W
2	0	0	0	0	16147.4	-0.461215	-0.462198	-0.00672281	1	0.0000000E+000	13	0.000000000000000E+000	3.10727e-06
2	1	0	1	0	16346.9	-0.261622	-0.263508	0.00552128	1	0.000646848	13	196.042	-1.4549e-06
2	1	0	1	0	16547	-0.0615788	-0.0632037	0.00628357	1	0.00185248	13	396.086	-3.97145e-07
2	1	0	1	0	16747	0.138464	0.13667	0.00684427	1	0.00317756	13	596.129	9.35407e-07
2	1	0	1	0	16947.1	0.338508	0.337031	0.00782315	1	0.00464092	13	796.172	2.63664e-06
2	0	0	1	0	17147.1	0.538551	0.536292	0.00907636	1	0.00632319	13	996.215	4.86757e-06
2	1	0	1	0	17347.2	0.738594	0.736987	0.0106536	1	0.00829669	13	1196.26	7.85157e-06
2	0	0	1	0	17547.2	0.938637	0.936514	0.0126639	1	0.0106123	13	1396.3	1.18599e-05
2	1	0	1	0	17746.2	0.862421	0.860902	0.0123314	1	0.0131691	13	1595.24	1.06161e-05
2	1	0	1	0	17946.2	0.662377	0.660745	0.0112759	1	0.0155254	13	1795.29	7.45049e-06
2	1	0	0	0	18146.2	0.462334	0.460697	0.0098726	1	0.0176505	13	1995.33	4.54828e-06
2	1	0	1	0	18346.3	0.262291	0.260749	0.00812783	1	0.0194545	13	2195.37	2.11932e-06
2	1	0	1	0	18546.3	0.0622481	0.0606087	0.00603971	1	0.0208759	13	2395.42	3.66059e-07
2	0	0	1	0	18746.4	-0.137795	-0.139733	0.00294218	1	0.0218013	13	2595.46	-4.11119e-07
2	0	0	1	0	18946.4	-0.337838	-0.338404	0.000332812	1	0.0221191	13	2795.5	-1.12625e-07
2	0	0	1	0	19146.5	-0.537882	-0.539613	-0.00549447	1	0.0216902	13	184.04	2.96488e-06
2	0	0	1	0	19346.5	-0.737925	-0.739322	-0.0163853	1	0.0195624	13	384.083	1.2114e-05
2	0	0	1	0	19546.5	-0.937968	-0.93951	-0.0309689	1	0.0149232	13	584.126	2.90956e-05
2	0	0	1	1	19745.2	-0.863452	-0.864905	-0.0244083	1	0.00853773	13	782.77	2.11109e-05
2	0	0	1	1	19945.2	-0.663409	-0.664778	-0.00931399	1	0.00525577	13	982.813	6.19173e-06
2	1	0	1	1	20145.3	-0.463365	-0.464833	0.00193461	1	0.00457416	13	38.0082	-8.99271e-07
2	1	0	1	1	20344.1	-0.264523	-0.265936	0.0083448	2	0.00569884	13	236.851	-2.21918e-06
2	1	0	0	1	20544.2	-0.0644794	-0.0658043	0.00850059	2	0.0074423	13	436.894	-5.59375e-07
2	0	0	0	1	20744.2	0.135564	0.134616	0.00894198	2	0.00918494	13	636.937	1.20373e-06
2	1	0	1	1	20944.2	0.335607	0.334284	0.00970697	2	0.0110431	13	836.981	3.24488e-06
2	1	0	0	1	21144.3	0.53565	0.534498	0.0106803	2	0.0130826	13	1037.02	5.70862e-06
2	1	0	0	1	21344.3	0.735693	0.734107	0.011945	2	0.0153391	13	1237.07	8.76887e-06
2	0	0	1	1	21544.4	0.935736	0.933712	0.0138809	2	0.0179203	13	1437.11	1.29608e-05
2	1	0	1	1	21743.2	0.865421	0.864326	0.0135043	2	0.0207133	13	1635.95	1.16721e-05
2	1	0	1	1	21943.3	0.665378	0.663648	0.0117015	2	0.0232406	13	1836	7.76565e-06
2	1	0	1	1	22143.3	0.465335	0.463726	0.00980864	2	0.0253933	13	2036.04	4.54852e-06
2	1	0	1	1	22343.3	0.265292	0.263497	0.00764359	2	0.0271444	13	2236.08	2.01406e-06
2	1	0	1	1	22543.4	0.0652486	0.0636813	0.00516418	2	0.0284309	13	2436.13	3.28862e-07
2	1	0	1	1	22743.4	-0.134795	-0.135908	0.0017146	2	0.0291412	13	2636.17	-2.33029e-07
2	1	0	1	1	22943.5	-0.334838	-0.33626	7.63739e-06	2	0.0292998	13	0.000000000000000E+000	-2.56815e-09
2	0	0	0	1	23143.5	-0.534881	-0.536393	-0.00447235	2	0.0289448	13	200.043	2.39894e-06
2	0	0	1	1	23343.6	-0.734924	-0.737599	-0.0144702	2	0.0271264	13	400.086	1.06732e-05
2	0	0	1	1	23543.6	-0.934967	-0.936646	-0.0284924	2	0.0229253	13	600.129	2.66873e-05
2	0	0	1	0	23742.2	-0.866453	-0.868091	-0.0230695	2	0.0169359	13	798.773	2.00264e-05
2	0	0	1	0	23942.3	-0.666409	-0.668223	-0.00870395	2	0.0138404	13	998.816	5.81618e-06
2	1	0	1	0	24142.3	-0.466366	-0.467782	0.00209277	2	0.0132406	13	44.0096	-9.78959e-07
2	0	0	1	0	24341.2	-0.267523	-0.269138	0.00768635	3	0.0143093	13	242.853	-2.06869e-06
2	1	0	1	0	24541.2	-0.06748	-0.068911	0.00820727	3	0.0159478	13	442.896	-5.65571e-07
2	1	0	1	0	24741.3	0.132563	0.131728	0.00756241	3	0.0175375	13	642.939	9.9618e-07
2	1	0	1	0	24941.3	0.332606	0.330803	0.00756619	3	0.019039	13	842.982	2.50291e-06
2	1	0	1	0	25141.3	0.532649	0.531444	0.00800408	3	0.0205943	13	1043.03	4.25372e-06
2	1	0	1	0	25341.4	0.732693	0.731417	0.00856641	3	0.0222519	13	1243.07	6.26562e-06
2	1	0	1	0	25541.4	0.932736	0.931673	0.00926562	3	0.02403	13	1443.11	8.63253e-06
2	1	0	1	0	25740.3	0.868422	0.866886	0.00866793	3	0.0258644	13	1641.95	7.51411e-06
2	1	0	1	0	25940.3	0.668379	0.666745	0.00732437	3	0.027463	13	1842	4.88349e-06
2	0	0	1	0	26140.4	0.468336	0.466263	0.00602774	3	0.0287924	13	2042.04	2.81051e-06
2	1	0	1	0	26340.4	0.268292	0.266722	0.00464492	3	0.029858	13	2242.08	1.2389e-06
2	1	0	1	0	26540.5	0.0682493	0.0665589	0.00333802	3	0.0306552	13	2442.13	2.22175e-07
2	1	0	1	0	26740.5	-0.131794	-0.133265	0.00117063	3	0.0311391	13	2642.17	-1.56004e-07
2	0	0	1	0	26940.5	-0.331837	-0.333315	-4.46852e-05	3	0.031236	13	12.0026	1.48943e-08
2	1	0	1	0	27140.6	-0.53188	-0.533225	-0.00334539	3	0.0309631	13	212.046	1.78385e-06
2	0	0	1	0	27340.6	-0.731924	-0.732501	-0.0104923	3	0.0296345	13	412.089	7.68559e-06
2	0	0	1	0	27540.7	-0.931967	-0.933496	-0.0217059	3	0.0265089	13	612.132	2.02624e-05
2	0	0	1	1	27739.3	-0.869453	-0.87098	-0.0181618	3	0.0217911	13	810.776	1.58185e-05
2	0	0	1	1	27939.4	-0.66941	-0.670568	-0.00696852	3	0.0193613	13	1010.82	4.67286e-06
2	1	0	1	1	28139.4	-0.469367	-0.470677	0.000871216	3	0.0188008	13	26.0056	-4.10062e-07
2	1	0	1	1	28338.2	-0.270524	-0.271687	0.00457558	4	0.019388	13	224.849	-1.24313e-06
2	1	0	1	1	28538.3	-0.0704807	-0.0718757	0.00668936	4	0.0205435	13	424.892	-4.80802e-07
2	1	0	1	1	28738.3	0.129563	0.128734	0.00748041	4	0.0219932	13	624.935	9.6298e-07
2	1	0	1	1	28938.4	0.329606	0.328204	0.00776226	4	0.0235098	13	824.978	2.54761e-06
2	1	0	1	1	29138.4	0.529649	0.528256	0.00814274	4	0.0250991	13	1025.02	4.30146e-06
[...]
2	0	0	1	0	31736.4	-0.872454	-0.874328	-0.0164604	4	0.0274736	13	794.772	1.43918e-05
2	0	0	1	0	31936.4	-0.672411	-0.674256	-0.00648102	4	0.0252626	13	994.815	4.36987e-06
2	1	0	1	0	32136.5	-0.472367	-0.473699	0.000557422	4	0.0247149	13	19.0042	-2.6405e-07
2	1	0	1	0	32335.3	-0.273525	-0.275516	0.00398055	5	0.0252049	13	217.847	-1.09671e-06
2	1	0	1	0	32535.3	-0.0734814	-0.0749305	0.00678846	5	0.0262955	13	417.89	-5.08663e-07
2	1	0	1	0	32735.4	0.126562	0.124663	0.00848507	5	0.0278664	13	617.933	1.05778e-06
2	1	0	1	0	32935.4	0.326605	0.324866	0.0093353	5	0.0296607	13	817.977	3.03272e-06
2	1	0	1	0	33135.5	0.526648	0.525072	0.00994324	5	0.0315934	13	1018.02	5.22092e-06
2	1	0	1	0	33335.5	0.726691	0.725348	0.0106918	5	0.0336574	13	1218.06	7.75529e-06
2	1	0	1	0	33535.6	0.926735	0.925429	0.0115298	5	0.0358789	13	1418.11	1.067e-05
2	1	0	1	0	33734.4	0.874423	0.87289	0.0107809	5	0.0381545	13	1616.95	9.41051e-06
2	1	0	1	0	33934.5	0.67438	0.673	0.0094188	5	0.0401726	13	1816.99	6.33885e-06
2	1	0	1	0	34134.5	0.474337	0.47293	0.00811268	5	0.0419209	13	2017.04	3.83673e-06
2	1	0	1	0	34334.5	0.274294	0.27266	0.00672326	5	0.0434028	13	2217.08	1.83317e-06
2	1	0	1	0	34534.6	0.0742507	0.0736022	0.00518606	5	0.0445924	13	2417.12	3.81705e-07
2	0	0	1	0	34734.6	-0.125793	-0.127709	0.00244754	5	0.045388	13	2617.17	-3.12574e-07
2	0	0	1	0	34934.7	-0.325836	-0.32747	0.000415508	5	0.045646	13	2817.21	-1.36066e-07
2	0	0	1	0	35134.7	-0.525879	-0.527432	-0.00311362	5	0.0454125	13	169.036	1.64222e-06
2	0	0	1	0	35334.8	-0.725922	-0.727254	-0.00882919	5	0.0442527	13	369.08	6.42106e-06
2	0	0	1	0	35534.8	-0.925966	-0.92761	-0.017006	5	0.0417328	13	569.123	1.57749e-05
2	0	0	1	1	35733.4	-0.875455	-0.877061	-0.0150334	5	0.0379339	13	767.766	1.31852e-05
2	0	0	0	1	35933.5	-0.675411	-0.676771	-0.00638797	5	0.0358648	13	967.81	4.32319e-06
2	0	0	1	1	36133.5	-0.475368	-0.476041	0.000315598	5	0.0352688	13	8.0018	-1.50238e-07
2	0	0	1	1	36332.4	-0.276525	-0.278338	0.00501279	6	0.0358072	13	206.845	-1.39525e-06
2	1	0	1	1	36532.4	-0.0764819	-0.0782674	0.00972124	6	0.0372839	13	406.888	-7.60856e-07
2	1	0	1	1	36732.5	0.123561	0.121434	0.0135604	6	0.0396626	13	606.931	1.64668e-06
2	1	0	1	1	36932.5	0.323604	0.321942	0.0145847	6	0.0425451	13	806.974	4.69542e-06
2	1	0	1	1	37132.5	0.523648	0.521772	0.013559	6	0.0453556	13	1007.02	7.07472e-06
2	1	0	1	1	37332.6	0.723691	0.722093	0.0134981	6	0.048049	13	1207.06	9.74686e-06
2	1	0	1	1	37532.6	0.923734	0.922295	0.0140392	6	0.0507991	13	1407.1	1.29482e-05
2	1	0	1	1	37731.5	0.877424	0.876019	0.0130561	6	0.0535516	13	1605.95	1.14374e-05
2	1	0	1	1	37931.5	0.677381	0.676082	0.0114871	6	0.0560053	13	1805.99	7.76624e-06
2	1	0	1	1	38131.6	0.477337	0.475875	0.00990157	6	0.0581427	13	2006.03	4.71191e-06
2	1	0	1	1	38331.6	0.277294	0.276309	0.00838162	6	0.0599722	13	2206.08	2.31592e-06
2	1	0	1	1	38531.6	0.0772512	0.0759917	0.00654453	6	0.0614696	13	2406.12	4.9733e-07
2	0	0	1	1	38731.7	-0.122792	-0.124226	0.00339144	6	0.0625061	13	2606.16	-4.21305e-07
2	1	0	1	1	38931.7	-0.322835	-0.324162	0.000513082	6	0.0628716	13	2806.21	-1.66321e-07
2	1	0	1	1	39131.8	-0.522878	-0.524495	-0.00385493	6	0.0625717	13	171.037	2.02189e-06
2	0	0	1	1	39331.8	-0.722922	-0.724616	-0.00974774	6	0.0612308	13	371.08	7.06337e-06
2	0	0	1	1	39531.9	-0.922965	-0.92444	-0.0174929	6	0.0585554	13	571.123	1.61712e-05
2	0	0	1	0	39730.5	-0.878455	-0.88009	-0.0155948	6	0.0546965	13	769.767	1.37249e-05
2	0	0	1	0	39930.5	-0.678412	-0.680171	-0.00690575	6	0.0525075	13	969.81	4.69709e-06
2	1	0	1	0	40130.6	-0.478369	-0.479638	0.00038076	6	0.0518616	13	11.0024	-1.82627e-07
2	0	0	1	0	40147.7	-0.461215	-0.462485	0.00114537	6	0.051874	13	28.1345	-5.29715e-07