Folder: RzSpEC-project/resorufin_10x_frittedTiCt_FTOWE_AgAgClref_N2sparge_3_16_CV_C12 (part 2)

File: resorufin_10x_frittedTiCt_FTOWE_AgAgClref_N2sparge_3_06_CV_C12.txt
EC-Lab ASCII FILE
Nb header lines : 59

Cyclic Voltammetry

Run on channel : 12 (SN 15159)
User :
CE vs. WE compliance from -10 V to 10 V
Electrode connection : standard
Potential control : Ewe
Ewe ctrl range : min = -2.50 V, max = 2.50 V
Safety Limits :
	Do not start on E overload
Acquisition started on : 06/27/2024 22:37:21.030
Technique started on : 06/27/2024 22:39:37.290
Loaded Setting File :  NONE
Saved on :
	File : resorufin_10x_frittedTiCt_FTOWE_AgAgClref_N2sparge_3_06_CV_C12.mpr
	Directory : C:\Users\user\OneDrive - California Institute of Technology\Desktop\Big James\06272024_resorufin_spEC_test\
	Host : 10.8.34.190
Device : VMP3 (SN 1026)
Address : 131.215.231.69
EC-Lab for windows v11.50 (software)
Internet server v11.52 (firmware)
Command interpretor v11.50 (firmware)
Electrode material : Au/Pd
Initial state :
Electrolyte : NaCl (0.2M)
Comments : Fe(CN)63-/Fe(CN)64- 5.10-3 M
Reference electrode : SCE Saturated Calomel Electrode (0.241 V)
Electrode surface area : 0.001 cm²
Characteristic mass : 0.001 g
Equivalent Weight : 0.000 g/eq.
Density : 0.000 g/cm3
Volume (V) : 0.001 cm³
Cycle Definition : Charge/Discharge alternance
Ei (V)              0.000
vs.                 Eoc
dE/dt               200.000
dE/dt unit          mV/s
E1 (V)              1.000
vs.                 Ref
Step percent        50
N                   10
E range min (V)     -2.500
E range max (V)     2.500
I Range             Auto
I Range min         Unset
I Range max         Unset
I Range init        Unset
Bandwidth           5
E2 (V)              -1.000
vs.                 Ref
nc cycles           5
Reverse Scan        1
Ef (V)              0.000
vs.                 Eoc

mode	ox/red	error	control changes	counter inc.	time/s	control/V	Ewe/V	<I>/mA	cycle number	(Q-Qo)/C	I Range	step time/s	P/W
2	1	0	0	0	136.26	-0.361894	-0.363972	0.00468535	1	0.0000000E+000	14	0.000000000000000E+000	-1.70534e-06
2	1	0	1	0	137.273	-0.1593	-0.161041	0.0580081	1	3.31677e-05	13	0.9953	-9.34169e-06
2	1	0	1	0	138.288	0.043744	0.0422508	0.0939412	1	0.000114568	12	2.0105	3.96909e-06
2	1	0	1	0	139.274	0.240786	0.239324	0.133106	1	0.000225984	12	2.9957	3.18554e-05
2	1	0	1	0	140.259	0.437829	0.436358	0.16776	1	0.000372704	12	3.9809	7.32037e-05
2	1	0	1	0	141.244	0.634871	0.633366	0.205731	1	0.000555214	12	4.9661	0.000130303
2	1	0	1	0	142.229	0.831914	0.830584	0.240911	1	0.000773723	12	5.9513	0.000200097
2	1	0	1	0	143.203	0.973344	0.971934	0.260404	1	0.00102418	12	6.925	0.000253095
2	1	0	1	0	144.188	0.776302	0.774787	0.217656	1	0.00125947	12	7.9102	0.000168637
2	1	0	1	0	145.173	0.579259	0.577832	0.177312	1	0.00145267	12	8.8954	0.000102456
2	1	0	1	0	146.158	0.382217	0.380732	0.137014	1	0.00160533	12	9.8806	5.21658e-05
2	1	0	1	0	147.144	0.185175	0.183692	0.0974117	1	0.00171821	12	10.8659	1.78938e-05
2	1	0	1	0	148.129	-0.011868	-0.0133828	0.0491989	1	0.00178974	12	11.8511	-6.58416e-07
2	0	0	1	0	149.114	-0.208911	-0.210432	-0.0172579	1	0.00180515	12	0.2151	3.63163e-06
2	0	0	1	0	150.099	-0.405953	-0.407465	-0.0400593	1	0.00177982	12	1.2003	1.63228e-05
2	0	0	1	0	151.085	-0.602996	-0.604537	-0.071231	1	0.00172948	12	2.1855	4.30618e-05
2	0	0	1	0	152.07	-0.800038	-0.801579	-0.104674	1	0.00164602	12	3.1707	8.39047e-05
2	0	0	1	0	153.055	-0.997081	-0.998647	-0.139376	1	0.00152525	12	4.1559	0.000139188
2	0	0	1	1	154.033	-0.80744	-0.808905	-0.0898242	1	0.00141929	12	5.1336	7.26592e-05
2	0	0	1	1	155.018	-0.610397	-0.612001	-0.0476161	1	0.00135567	12	6.1188	2.91411e-05
2	0	0	1	1	156.003	-0.413355	-0.41496	-0.00147243	1	0.00133279	12	0.005	6.10998e-07
2	1	0	1	1	156.983	-0.217312	-0.218812	0.0401489	2	0.00135494	12	0.8952	-8.78506e-06
2	1	0	1	1	157.968	-0.0202698	-0.0219004	0.0832968	2	0.00142305	12	1.8804	-1.82424e-06
2	1	0	1	1	158.954	0.176773	0.175285	0.120439	2	0.00152334	12	2.8656	2.11112e-05
2	1	0	1	1	159.939	0.373815	0.372347	0.153246	2	0.0016563	12	3.8508	5.70607e-05
2	1	0	1	1	160.924	0.570858	0.569292	0.190309	2	0.00182412	12	4.8361	0.000108342
2	1	0	1	1	161.909	0.7679	0.766458	0.224706	2	0.00202703	12	5.8213	0.000172228
2	1	0	1	1	162.895	0.964943	0.963526	0.2575	2	0.00226551	12	6.8065	0.000248108
2	1	0	1	1	163.868	0.840316	0.83888	0.226224	2	0.00250684	12	7.7802	0.000189775
2	1	0	1	1	164.853	0.643273	0.641864	0.18743	2	0.00270951	12	8.7654	0.000120305
2	1	0	1	1	165.839	0.446231	0.444788	0.145886	2	0.002872	12	9.7506	6.48884e-05
2	1	0	1	1	166.824	0.249188	0.247706	0.108497	2	0.00299521	12	10.7358	2.68753e-05
2	1	0	1	1	167.809	0.0521458	0.0506569	0.0669066	2	0.00307894	12	11.721	3.38928e-06
2	1	0	1	1	168.794	-0.144897	-0.14638	0.00386689	2	0.00311265	12	0.005	-5.66034e-07
2	0	0	1	1	169.779	-0.341939	-0.343469	-0.0343171	2	0.0030939	12	0.9152	1.17869e-05
2	0	0	1	1	170.765	-0.538982	-0.540465	-0.0578281	2	0.00305248	12	1.9004	3.1254e-05
2	0	0	1	1	171.75	-0.736024	-0.73753	-0.0945853	2	0.00298065	12	2.8857	6.97595e-05
2	0	0	1	1	172.735	-0.933067	-0.934688	-0.131298	2	0.00287297	12	3.8709	0.000122722
2	0	0	1	0	173.713	-0.871454	-0.873002	-0.102801	2	0.00275399	12	4.8485	8.97453e-05
2	0	0	1	0	174.698	-0.674411	-0.675917	-0.0587032	2	0.00267732	12	5.8337	3.96784e-05
2	0	0	1	0	175.683	-0.477369	-0.478853	-0.0211135	2	0.00264068	12	6.8189	1.01103e-05
2	1	0	1	0	176.663	-0.281326	-0.282831	0.0255614	3	0.00264667	12	0.5401	-7.22955e-06
2	1	0	1	0	177.649	-0.0842836	-0.0858343	0.0726702	3	0.00269978	12	1.5253	-6.2376e-06
2	1	0	1	0	178.634	0.112759	0.111288	0.100356	3	0.00278927	12	2.5106	1.11684e-05
2	1	0	1	0	179.619	0.309801	0.308406	0.137386	3	0.0029089	12	3.4958	4.23706e-05
2	1	0	1	0	180.604	0.506844	0.505352	0.175963	3	0.0030627	12	4.481	8.89234e-05
2	1	0	1	0	181.589	0.703886	0.702434	0.209398	3	0.003251	12	5.4662	0.000147088
2	1	0	1	0	182.575	0.900929	0.899522	0.246535	3	0.00347423	12	6.4514	0.000221763
2	1	0	1	0	183.548	0.90433	0.902943	0.236043	3	0.0037183	12	7.4251	0.000213134
2	1	0	1	0	184.534	0.707287	0.705876	0.193093	3	0.00393086	12	8.4103	0.0001363
2	1	0	1	0	185.519	0.510245	0.508761	0.154341	3	0.00410348	12	9.3955	7.85228e-05
2	1	0	1	0	186.504	0.313202	0.311683	0.119214	3	0.00423715	12	10.3807	3.71569e-05
2	1	0	1	0	187.489	0.11616	0.114718	0.0784996	3	0.00433228	12	11.3659	9.00531e-06
2	1	0	1	0	188.474	-0.0808829	-0.0824386	0.0279071	3	0.00438371	12	12.3511	-2.30063e-06
2	0	0	1	0	189.46	-0.277925	-0.279433	-0.0181213	3	0.00437671	12	0.5952	5.0637e-06
2	0	0	1	0	190.445	-0.474968	-0.476462	-0.0452196	3	0.00434228	12	1.5804	2.15454e-05
2	0	0	1	0	191.43	-0.672011	-0.673512	-0.0817682	3	0.00428173	12	2.5656	5.50718e-05
2	0	0	1	0	192.415	-0.869053	-0.870586	-0.117537	3	0.00418665	12	3.5508	0.000102326
2	0	0	1	1	193.393	-0.935467	-0.936997	-0.108492	3	0.00406374	12	4.5284	0.000101657
2	0	0	1	1	194.378	-0.738425	-0.73987	-0.071263	3	0.00397437	12	5.5136	5.27254e-05
2	0	0	1	1	195.363	-0.541382	-0.542913	-0.0335764	3	0.003925	12	6.4989	1.8229e-05
2	1	0	1	1	196.344	-0.34534	-0.346845	0.0170935	4	0.0039161	12	0.2051	-5.92881e-06
2	1	0	1	1	197.329	-0.148297	-0.149773	0.0581891	4	0.00395348	12	1.1903	-8.71515e-06
2	1	0	1	1	198.314	0.0487451	0.0472421	0.0927134	4	0.0040321	12	2.1755	4.37998e-06
2	1	0	1	1	199.299	0.245788	0.244354	0.122642	4	0.00413955	12	3.1607	2.99682e-05
2	1	0	1	1	200.284	0.44283	0.441388	0.159178	4	0.0042801	12	4.1459	7.02594e-05
2	1	0	1	1	201.27	0.639873	0.638404	0.197518	4	0.00445459	12	5.1311	0.000126096
[...]
2	0	0	1	0	214.058	-0.802439	-0.803912	-0.0850401	4	0.00525248	12	5.2136	6.83648e-05
2	0	0	1	0	215.043	-0.605396	-0.606989	-0.0458593	4	0.00519084	12	6.1988	2.78361e-05
2	0	0	1	0	216.029	-0.408354	-0.409887	-0.00645884	4	0.00516831	12	0.000000000000000E+000	2.6474e-06
2	1	0	1	0	217.009	-0.212311	-0.213844	0.043147	5	0.00518983	12	0.8902	-9.22674e-06
2	1	0	1	0	217.994	-0.0152687	-0.016894	0.0825748	5	0.00525618	12	1.8754	-1.39502e-06
2	1	0	1	0	218.979	0.181774	0.180292	0.10965	5	0.00535293	12	2.8606	1.9769e-05
2	1	0	1	0	219.964	0.378816	0.37736	0.144913	5	0.00548079	12	3.8458	5.46842e-05
2	1	0	1	0	220.95	0.575859	0.574358	0.183576	5	0.00564209	12	4.8311	0.000105438
2	1	0	1	0	221.935	0.772901	0.771386	0.216955	5	0.00583713	12	5.8163	0.000167356
2	1	0	1	0	222.92	0.969944	0.968511	0.252059	5	0.00606636	12	6.8015	0.000244121
2	1	0	1	0	223.894	0.835315	0.833877	0.214854	5	0.0062966	12	7.7752	0.000179162
2	1	0	1	0	224.879	0.638272	0.636848	0.173512	5	0.00648962	12	8.7604	0.000110501
2	1	0	1	0	225.864	0.44123	0.439795	0.136659	5	0.00664418	12	9.7456	6.01017e-05
2	1	0	1	0	226.849	0.244187	0.24268	0.101929	5	0.00676105	12	10.7308	2.47362e-05
2	1	0	1	0	227.835	0.0471447	0.0457074	0.061897	5	0.00683989	12	11.716	2.82915e-06
2	1	0	1	0	228.82	-0.149898	-0.151511	0.00352715	5	0.00686936	12	0.01	-5.34403e-07
2	0	0	1	0	229.805	-0.34694	-0.348436	-0.0244076	5	0.00684818	12	0.9952	8.50446e-06
2	0	0	1	0	230.79	-0.543983	-0.545482	-0.0562004	5	0.00680645	12	1.9804	3.06563e-05
2	0	0	1	0	231.776	-0.741026	-0.74253	-0.0927112	5	0.00673532	12	2.9657	6.88409e-05
2	0	0	1	0	232.761	-0.938068	-0.939624	-0.13015	5	0.00662946	12	3.9509	0.000122292
2	0	0	1	1	233.738	-0.866453	-0.868005	-0.0923003	5	0.00651474	12	4.9285	8.01171e-05
2	0	0	1	1	234.724	-0.66941	-0.670908	-0.0595126	5	0.0064411	12	5.9137	3.99275e-05
2	0	0	1	1	235.709	-0.472368	-0.47388	-0.0175498	5	0.00640591	12	6.8989	8.31651e-06
2	1	0	1	1	236.689	-0.276325	-0.277752	0.0301815	6	0.00641213	12	0.5551	-8.38297e-06
2	1	0	1	1	237.674	-0.0792826	-0.0808453	0.0704716	6	0.00646448	12	1.5404	-5.69729e-06
2	1	0	1	1	238.659	0.11776	0.116303	0.0975903	6	0.00655152	12	2.5256	1.13501e-05
2	1	0	1	1	239.645	0.314802	0.313317	0.131977	6	0.00666724	12	3.5108	4.13505e-05
2	1	0	1	1	240.63	0.511845	0.510377	0.168718	6	0.00681578	12	4.496	8.611e-05
2	1	0	1	1	241.615	0.708887	0.707388	0.203046	6	0.00699754	12	5.4812	0.000143632
2	1	0	1	1	242.6	0.90593	0.90455	0.238609	6	0.00721292	12	6.4664	0.000215833
2	1	0	1	1	243.574	0.899329	0.897937	0.22674	6	0.00744725	12	7.4401	0.000203598
2	1	0	1	1	244.559	0.702286	0.700844	0.184155	6	0.00765047	12	8.4253	0.000129064
2	1	0	1	1	245.544	0.505243	0.503829	0.147693	6	0.00781535	12	9.4105	7.44123e-05
2	1	0	1	1	246.53	0.308201	0.306799	0.113691	6	0.00794278	12	10.3957	3.48804e-05
2	1	0	1	1	247.515	0.111159	0.109719	0.0739054	6	0.00803309	12	11.3809	8.10884e-06
2	1	0	1	1	248.5	-0.085884	-0.0874701	0.0246764	6	0.0080806	12	12.3662	-2.15845e-06
2	0	0	1	1	249.485	-0.282927	-0.284469	-0.0201776	6	0.00807085	12	0.6602	5.73992e-06
2	0	0	1	1	250.47	-0.479969	-0.48143	-0.0467068	6	0.00803603	12	1.6454	2.2486e-05
2	0	0	1	1	251.456	-0.677012	-0.678544	-0.080529	6	0.00797603	12	2.6306	5.46425e-05
2	0	0	1	1	252.441	-0.874054	-0.87559	-0.116322	6	0.00788249	12	3.6158	0.00010185
2	0	0	1	0	253.418	-0.930466	-0.931978	-0.104757	6	0.0077632	12	4.5934	9.76311e-05
2	0	0	1	0	254.404	-0.733424	-0.734885	-0.0693517	6	0.00767746	12	5.5786	5.09655e-05
2	0	0	1	0	255.389	-0.536381	-0.537934	-0.0314957	6	0.00763019	12	6.5639	1.69426e-05
2	1	0	1	0	256.261	-0.361894	-0.363647	0.00466614	6	0.00762091	12	0.0971	-1.69683e-06

File: resorufin_10x_frittedTiCt_FTOWE_AgAgClref_N2sparge_3_08_CV_C12.txt
EC-Lab ASCII FILE
Nb header lines : 59

Cyclic Voltammetry

Run on channel : 12 (SN 15159)
User :
CE vs. WE compliance from -10 V to 10 V
Electrode connection : standard
Potential control : Ewe
Ewe ctrl range : min = -2.50 V, max = 2.50 V
Safety Limits :
	Do not start on E overload
Acquisition started on : 06/27/2024 22:37:21.030
Technique started on : 06/27/2024 22:42:07.393
Loaded Setting File :  NONE
Saved on :
	File : resorufin_10x_frittedTiCt_FTOWE_AgAgClref_N2sparge_3_08_CV_C12.mpr
	Directory : C:\Users\user\OneDrive - California Institute of Technology\Desktop\Big James\06272024_resorufin_spEC_test\
	Host : 10.8.34.190
Device : VMP3 (SN 1026)
Address : 131.215.231.69
EC-Lab for windows v11.50 (software)
Internet server v11.52 (firmware)
Command interpretor v11.50 (firmware)
Electrode material : Au/Pd
Initial state :
Electrolyte : NaCl (0.2M)
Comments : Fe(CN)63-/Fe(CN)64- 5.10-3 M
Reference electrode : SCE Saturated Calomel Electrode (0.241 V)
Electrode surface area : 0.001 cm²
Characteristic mass : 0.001 g
Equivalent Weight : 0.000 g/eq.
Density : 0.000 g/cm3
Volume (V) : 0.001 cm³
Cycle Definition : Charge/Discharge alternance
Ei (V)              0.000
vs.                 Eoc
dE/dt               100.000
dE/dt unit          mV/s
E1 (V)              1.000
vs.                 Ref
Step percent        50
N                   10
E range min (V)     -2.500
E range max (V)     2.500
I Range             Auto
I Range min         Unset
I Range max         Unset
I Range init        Unset
Bandwidth           5
E2 (V)              -1.000
vs.                 Ref
nc cycles           5
Reverse Scan        1
Ef (V)              0.000
vs.                 Eoc

mode	ox/red	error	control changes	counter inc.	time/s	control/V	Ewe/V	<I>/mA	cycle number	(Q-Qo)/C	I Range	step time/s	P/W
2	1	0	1	0	286.363	-0.356292	-0.357746	0.00927452	1	0.0000000E+000	14	0.000000000000000E+000	-3.31792e-06
2	1	0	1	0	288.359	-0.156699	-0.158176	0.053075	1	5.13754e-05	13	1.9654	-8.39522e-06
2	1	0	1	0	290.329	0.0403433	0.0387997	0.0824152	1	0.000180767	13	3.9358	3.19768e-06
2	1	0	1	0	292.33	0.240386	0.23887	0.115521	1	0.000378566	12	5.9362	2.75945e-05
2	1	0	1	0	294.3	0.437429	0.435932	0.148421	1	0.000639637	12	7.9066	6.47016e-05
2	1	0	1	0	296.271	0.634471	0.633048	0.182782	1	0.000966638	12	9.877	0.00011571
2	1	0	1	0	298.241	0.831514	0.830048	0.216305	1	0.00135948	12	11.8474	0.000179544
2	1	0	1	0	300.202	0.972444	0.9711	0.236131	1	0.00181366	12	13.8084	0.000229307
2	1	0	1	0	302.172	0.775402	0.77387	0.197724	1	0.00223903	12	15.7788	0.000153012
2	1	0	1	0	304.143	0.578359	0.576903	0.157915	1	0.00258804	12	17.7492	9.11018e-05
2	1	0	1	0	306.113	0.381317	0.379841	0.121538	1	0.00286381	12	19.7198	4.61653e-05
2	1	0	1	0	308.084	0.184274	0.182741	0.0855415	1	0.00306811	12	21.6902	1.56319e-05
2	1	0	1	0	310.054	-0.0127682	-0.0143241	0.0489416	1	0.00319986	12	23.6606	-7.01044e-07
2	1	0	1	0	312.025	-0.209811	-0.211298	-0.00234561	1	0.00324054	12	0.13	4.95622e-07
2	0	0	1	0	313.995	-0.406853	-0.408387	-0.0313847	1	0.00321017	12	2.1004	1.28171e-05
2	0	0	1	0	315.965	-0.603896	-0.605487	-0.0563599	1	0.00312744	12	4.0708	3.41252e-05
2	0	0	1	0	317.936	-0.800938	-0.80244	-0.0879889	1	0.00298251	12	6.0412	7.06058e-05
2	0	0	1	0	319.906	-0.997981	-0.999441	-0.125859	1	0.00277135	12	8.0116	0.000125789
2	0	0	1	1	321.862	-0.80644	-0.807903	-0.0779577	1	0.00258033	12	9.9676	6.29823e-05
2	0	0	1	1	323.833	-0.609397	-0.610903	-0.0356758	1	0.0024652	12	11.938	2.17945e-05
2	0	0	1	1	325.803	-0.412355	-0.413843	-0.00124491	1	0.00242292	12	13.9084	5.15198e-07
2	1	0	1	1	327.76	-0.216612	-0.218165	0.0354994	2	0.00245754	12	1.8174	-7.74473e-06
2	1	0	1	1	329.731	-0.0195697	-0.0211446	0.0766355	2	0.00256931	12	3.7878	-1.62042e-06
2	1	0	1	1	331.701	0.177473	0.175997	0.10467	2	0.00274325	12	5.7582	1.84217e-05
2	1	0	1	1	333.672	0.374515	0.373007	0.134266	2	0.00297973	12	7.7286	5.00821e-05
2	1	0	1	1	335.642	0.571558	0.570117	0.168773	2	0.00327997	12	9.6992	9.62205e-05
2	1	0	1	1	337.613	0.7686	0.767132	0.202048	2	0.00364403	12	11.6696	0.000154998
2	1	0	1	1	339.583	0.965643	0.96428	0.233071	2	0.004072	12	13.64	0.000224746
2	1	0	1	1	341.543	0.838415	0.836953	0.204104	2	0.00450899	12	15.6	0.000170825
2	1	0	1	1	343.513	0.641373	0.639902	0.168787	2	0.00487342	12	17.5704	0.000108007
2	1	0	1	1	345.484	0.44433	0.442891	0.131003	2	0.00516546	12	19.5408	5.80202e-05
2	1	0	1	1	347.454	0.247288	0.245864	0.0931865	2	0.00538714	12	21.5112	2.29112e-05
2	1	0	1	1	349.425	0.0502454	0.0487757	0.0584531	2	0.005539	12	23.4816	2.85109e-06
2	1	0	1	1	351.395	-0.146797	-0.148346	0.0131237	2	0.00560842	12	25.452	-1.94685e-06
2	0	0	1	1	353.365	-0.34384	-0.34544	-0.0185981	2	0.00559299	12	1.5102	6.42452e-06
2	0	0	1	1	355.336	-0.540889	-0.542519	-0.0505452	2	0.00552891	12	3.4807	2.74217e-05
2	0	0	1	1	357.306	-0.737925	-0.739502	-0.0782813	2	0.00540658	12	5.4512	5.78892e-05
2	0	0	1	1	359.277	-0.934967	-0.936482	-0.106928	2	0.00522031	12	7.4216	0.000100136
2	0	0	1	0	361.233	-0.869453	-0.870989	-0.0882371	2	0.00501084	12	9.3774	7.68535e-05
2	0	0	1	0	363.203	-0.672411	-0.673923	-0.0526646	2	0.00487428	12	11.3478	3.54919e-05
2	0	0	1	0	365.173	-0.475368	-0.476834	-0.0148838	2	0.00480931	12	13.3182	7.09712e-06
2	1	0	1	0	367.131	-0.279626	-0.281101	0.0259774	3	0.00481777	12	1.1772	-7.30225e-06
2	1	0	1	0	369.101	-0.0825833	-0.0841743	0.0572369	3	0.00490428	12	3.1476	-4.81788e-06
2	1	0	1	0	371.072	0.114459	0.113028	0.0917538	3	0.00505628	12	5.1182	1.03707e-05
2	1	0	1	0	373.042	0.311502	0.31002	0.123113	3	0.00526773	12	7.0886	3.81676e-05
2	1	0	1	0	375.013	0.508544	0.507082	0.15535	3	0.00554148	12	9.059	7.87753e-05
2	1	0	1	0	376.983	0.705587	0.704193	0.186976	3	0.00587759	12	11.0294	0.000131667
2	1	0	1	0	378.953	0.902629	0.901237	0.218071	3	0.00627613	12	12.9998	0.000196534
2	1	0	1	0	380.913	0.901429	0.900073	0.209597	3	0.00671453	12	14.9598	0.000188653
2	1	0	1	0	382.884	0.704386	0.702858	0.173066	3	0.00709392	12	16.9302	0.000121641
2	1	0	1	0	384.854	0.507344	0.505907	0.140631	3	0.00740162	12	18.9006	7.11464e-05
2	1	0	1	0	386.825	0.310301	0.308745	0.102814	3	0.00763997	12	20.871	3.17432e-05
2	1	0	1	0	388.795	0.113259	0.111631	0.0659844	3	0.00781027	12	22.8414	7.36594e-06
2	1	0	1	0	390.766	-0.0837835	-0.0853256	0.0241151	3	0.00790676	12	24.812	-2.05763e-06
2	0	0	1	0	392.736	-0.280826	-0.282383	-0.00862533	3	0.00791132	12	0.9402	2.43565e-06
2	0	0	1	0	394.706	-0.477869	-0.479452	-0.0364885	3	0.00786314	12	2.9106	1.74945e-05
2	0	0	1	0	396.677	-0.674911	-0.676495	-0.0712435	3	0.00776227	12	4.881	4.81959e-05
2	0	0	1	0	398.647	-0.871954	-0.873568	-0.099446	3	0.00759962	12	6.8514	8.68728e-05
2	0	0	1	1	400.603	-0.932467	-0.933997	-0.0965581	3	0.00738709	12	8.8072	9.01849e-05
2	0	0	1	1	402.573	-0.735424	-0.736871	-0.0618521	3	0.00722962	12	10.7776	4.5577e-05
2	0	0	1	1	404.544	-0.538382	-0.539924	-0.0275627	3	0.00714328	12	12.7482	1.48817e-05
2	1	0	1	1	406.501	-0.342639	-0.344203	0.0137309	4	0.00712747	12	0.5172	-4.7262e-06
2	1	0	1	1	408.472	-0.145597	-0.147093	0.0514932	4	0.00718825	12	2.4876	-7.57428e-06
2	1	0	1	1	410.442	0.0514457	0.0499895	0.0785145	4	0.007319	12	4.458	3.92491e-06
2	1	0	1	1	412.413	0.248488	0.246967	0.111729	4	0.00750706	12	6.4284	2.75933e-05
2	1	0	1	1	414.383	0.445531	0.444157	0.142172	4	0.00775587	12	8.3988	6.31467e-05
2	1	0	1	1	416.353	0.642573	0.641046	0.170354	4	0.0080656	12	10.3692	0.000109205
[...]
2	0	0	1	0	441.944	-0.798438	-0.799966	-0.0720187	4	0.00953727	12	10.1976	5.76125e-05
2	0	0	1	0	443.914	-0.601395	-0.602936	-0.0412973	4	0.00943047	12	12.168	2.48996e-05
2	0	0	1	0	445.885	-0.404353	-0.405918	-0.00246749	4	0.00939217	12	14.1384	1.0016e-06
2	1	0	1	0	447.842	-0.20861	-0.210103	0.0398889	5	0.00942734	12	1.8574	-8.38079e-06
2	1	0	1	0	449.813	-0.0115679	-0.0130317	0.0689271	5	0.00953611	12	3.8278	-8.98239e-07
2	1	0	1	0	451.783	0.185475	0.184078	0.0994381	5	0.00970283	12	5.7982	1.83044e-05
2	1	0	1	0	453.753	0.382517	0.381092	0.13117	5	0.00992802	12	7.7686	4.99878e-05
2	1	0	1	0	455.724	0.57956	0.578204	0.159614	5	0.0102129	12	9.7392	9.22895e-05
2	1	0	1	0	457.694	0.776602	0.775224	0.190015	5	0.0105574	12	11.7096	0.000147304
2	1	0	1	0	459.665	0.973645	0.972296	0.220755	5	0.0109614	12	13.68	0.000214639
2	1	0	1	0	461.625	0.830414	0.829014	0.189675	5	0.0113685	12	15.64	0.000157243
2	1	0	1	0	463.595	0.633371	0.631811	0.152605	5	0.0117067	12	17.6104	9.64178e-05
2	1	0	1	0	465.566	0.436329	0.43483	0.119557	5	0.011977	12	19.5808	5.1987e-05
2	1	0	1	0	467.536	0.239286	0.237747	0.0873107	5	0.0121816	12	21.5512	2.07579e-05
2	1	0	1	0	469.506	0.0422437	0.0408305	0.0551203	5	0.0123207	12	23.5216	2.25059e-06
2	1	0	1	0	471.477	-0.154799	-0.156318	0.00737577	5	0.0123801	12	25.492	-1.15296e-06
2	0	0	1	0	473.447	-0.351841	-0.353405	-0.0259521	5	0.01236	12	1.7002	9.17162e-06
2	0	0	1	0	475.418	-0.548884	-0.550389	-0.0451239	5	0.0122962	12	3.6708	2.48357e-05
2	0	0	1	0	477.388	-0.745927	-0.747423	-0.0710765	5	0.0121777	12	5.6412	5.31243e-05
2	0	0	1	0	479.359	-0.942969	-0.944516	-0.105474	5	0.0119987	12	7.6116	9.96219e-05
2	0	0	1	1	481.314	-0.861452	-0.863006	-0.0831974	5	0.0118025	12	9.5674	7.17999e-05
2	0	0	1	1	483.285	-0.664409	-0.66595	-0.0471779	5	0.0116757	12	11.5378	3.14181e-05
2	0	0	1	1	485.255	-0.467366	-0.468834	-0.00960626	5	0.0116163	12	13.5082	4.50374e-06
2	1	0	1	1	487.213	-0.271624	-0.273153	0.0184395	6	0.0116269	12	1.2072	-5.03681e-06
2	1	0	1	1	489.183	-0.0745815	-0.0760923	0.0587066	6	0.0117123	12	3.1778	-4.46712e-06
2	1	0	1	1	491.154	0.122461	0.121004	0.0914614	6	0.0118595	12	5.1482	1.10672e-05
2	1	0	1	1	493.124	0.319503	0.31812	0.118117	6	0.0120621	12	7.1186	3.75755e-05
2	1	0	1	1	495.094	0.516546	0.514985	0.145919	6	0.0123233	12	9.089	7.51461e-05
2	1	0	1	1	497.065	0.713588	0.712159	0.177193	6	0.0126429	12	11.0594	0.00012619
2	1	0	1	1	499.035	0.910631	0.909236	0.206761	6	0.0130208	12	13.0298	0.000187994
2	1	0	1	1	500.995	0.893427	0.892063	0.195722	6	0.0134324	12	14.9898	0.000174596
2	1	0	1	1	502.966	0.696385	0.694867	0.161435	6	0.0137857	12	16.9602	0.000112176
2	1	0	1	1	504.936	0.499342	0.497818	0.128703	6	0.0140716	12	18.9306	6.40704e-05
2	1	0	1	1	506.906	0.3023	0.300829	0.096218	6	0.0142924	12	20.901	2.89452e-05
2	1	0	1	1	508.877	0.105257	0.103836	0.0637774	6	0.0144494	12	22.8716	6.62238e-06
2	1	0	1	1	510.847	-0.0917853	-0.0933461	0.0164131	6	0.0145357	12	24.842	-1.5321e-06
2	0	0	1	1	512.818	-0.288828	-0.290443	-0.016823	6	0.0145338	12	1.1202	4.88614e-06
2	0	0	1	1	514.788	-0.48587	-0.487443	-0.0314692	6	0.0144849	12	3.0906	1.53395e-05
2	0	0	1	1	516.759	-0.682913	-0.684498	-0.064362	6	0.0143867	12	5.061	4.40556e-05
2	0	0	1	1	518.729	-0.879956	-0.881546	-0.0994713	6	0.0142301	12	7.0314	8.76885e-05
2	0	0	1	0	520.685	-0.924465	-0.925922	-0.0932815	6	0.0140288	12	8.9872	8.63714e-05
2	0	0	1	0	522.655	-0.727423	-0.728923	-0.05432	6	0.0138824	12	10.9576	3.95951e-05
2	0	0	1	0	524.626	-0.53038	-0.531955	-0.0238587	6	0.0138028	12	12.9282	1.26917e-05
2	1	0	1	0	526.367	-0.356292	-0.357631	0.00612135	6	0.0137882	12	0.3605	-2.18919e-06