Folder: RzSpEC-project/resorufin_10x_frittedTiCt_FTOWE_AgAgClref_N2sparge_3_16_CV_C12 (part 4)

File: resorufin_10x_frittedTiCt_FTOWE_AgAgClref_N2sparge_3_14_CV_C12.txt
EC-Lab ASCII FILE
Nb header lines : 59

Cyclic Voltammetry

Run on channel : 12 (SN 15159)
User :
CE vs. WE compliance from -10 V to 10 V
Electrode connection : standard
Potential control : Ewe
Ewe ctrl range : min = -2.50 V, max = 2.50 V
Safety Limits :
	Do not start on E overload
Acquisition started on : 06/27/2024 22:37:21.030
Technique started on : 06/27/2024 23:11:37.769
Loaded Setting File :  NONE
Saved on :
	File : resorufin_10x_frittedTiCt_FTOWE_AgAgClref_N2sparge_3_14_CV_C12.mpr
	Directory : C:\Users\user\OneDrive - California Institute of Technology\Desktop\Big James\06272024_resorufin_spEC_test\
	Host : 10.8.34.190
Device : VMP3 (SN 1026)
Address : 131.215.231.69
EC-Lab for windows v11.50 (software)
Internet server v11.52 (firmware)
Command interpretor v11.50 (firmware)
Electrode material : Au/Pd
Initial state :
Electrolyte : NaCl (0.2M)
Comments : Fe(CN)63-/Fe(CN)64- 5.10-3 M
Reference electrode : SCE Saturated Calomel Electrode (0.241 V)
Electrode surface area : 0.001 cm²
Characteristic mass : 0.001 g
Equivalent Weight : 0.000 g/eq.
Density : 0.000 g/cm3
Volume (V) : 0.001 cm³
Cycle Definition : Charge/Discharge alternance
Ei (V)              0.000
vs.                 Eoc
dE/dt               12.000
dE/dt unit          mV/s
E1 (V)              1.000
vs.                 Ref
Step percent        50
N                   10
E range min (V)     -2.500
E range max (V)     2.500
I Range             Auto
I Range min         Unset
I Range max         Unset
I Range init        Unset
Bandwidth           5
E2 (V)              -1.000
vs.                 Ref
nc cycles           5
Reverse Scan        1
Ef (V)              0.000
vs.                 Eoc

mode	ox/red	error	control changes	counter inc.	time/s	control/V	Ewe/V	<I>/mA	cycle number	(Q-Qo)/C	I Range	step time/s	P/W
2	0	0	1	0	2056.74	-0.383998	-0.385611	-0.00171604	1	0.0000000E+000	13	0.000000000000000E+000	6.61725e-07
2	1	0	1	0	2073.2	-0.186406	-0.187978	0.0271839	1	0.000233619	13	16.4202	-5.10998e-06
2	1	0	1	0	2089.71	0.0116379	0.0101456	0.0512503	1	0.000888298	13	32.9238	5.19965e-07
2	1	0	1	0	2106.21	0.209681	0.208173	0.0694561	1	0.00189616	13	49.4274	1.44589e-05
2	1	0	1	0	2122.72	0.407722	0.406293	0.0825397	1	0.00316199	13	65.9308	3.35353e-05
2	1	0	1	0	2139.22	0.605764	0.604227	0.0895059	1	0.00458948	13	82.4344	5.40819e-05
2	1	0	1	0	2155.72	0.803808	0.80235	0.0939052	1	0.00610714	13	98.938	7.53448e-05
2	1	0	1	0	2172.12	0.99945	0.99803	0.0985644	1	0.00768856	12	115.334	9.83702e-05
2	1	0	1	0	2188.62	0.801407	0.799932	0.0801835	1	0.00914791	12	131.837	6.41413e-05
2	1	0	1	0	2205.13	0.603364	0.601888	0.0664471	1	0.0103531	12	148.341	3.99937e-05
2	1	0	1	0	2221.63	0.405322	0.403825	0.0537801	1	0.0113426	12	164.844	2.17177e-05
2	1	0	1	0	2238.16	0.20698	0.20551	0.0404787	1	0.0121236	13	181.373	8.31878e-06
2	1	0	1	0	2254.66	0.00893677	0.00744745	0.0268057	1	0.0126813	13	197.877	1.99634e-07
2	1	0	1	0	2271.16	-0.189106	-0.190634	0.00880696	1	0.0129726	13	214.38	-1.67891e-06
2	0	0	1	0	2287.67	-0.38715	-0.388647	-0.00668492	1	0.0129904	13	7.0016	2.59807e-06
2	0	0	1	0	2304.17	-0.585193	-0.586626	-0.025502	1	0.0127222	13	23.5052	1.49602e-05
2	0	0	1	0	2320.68	-0.783234	-0.784748	-0.0488286	1	0.0121087	13	40.0086	3.83182e-05
2	0	0	1	0	2337.18	-0.981277	-0.982817	-0.0760981	1	0.0110872	13	56.5122	7.47905e-05
2	0	0	1	1	2353.54	-0.822444	-0.82397	-0.0503103	1	0.0100256	13	72.8746	4.14541e-05
2	0	0	1	1	2370.05	-0.624401	-0.625914	-0.0234069	1	0.00942588	13	89.3782	1.46507e-05
2	1	0	1	1	2386.55	-0.426358	-0.427909	0.0019411	1	0.00925543	13	1.417	-8.30613e-07
2	1	0	1	1	2402.94	-0.229615	-0.231157	0.0265519	2	0.00949639	13	17.8122	-6.13766e-06
2	1	0	1	1	2419.45	-0.0315722	-0.0331897	0.0508793	2	0.0101404	13	34.3158	-1.68867e-06
2	1	0	1	1	2435.95	0.166471	0.164815	0.0709208	2	0.0111541	13	50.8194	1.16888e-05
2	1	0	1	1	2452.45	0.364513	0.363019	0.085305	2	0.0124567	13	67.3229	3.09674e-05
2	1	0	1	1	2468.98	0.562855	0.561301	0.0940999	2	0.0139482	12	83.8514	5.28183e-05
2	1	0	1	1	2485.49	0.760898	0.759441	0.0985038	2	0.0155441	12	100.355	7.48078e-05
2	1	0	1	1	2501.99	0.958941	0.957417	0.101558	2	0.0171961	12	116.859	9.72334e-05
2	1	0	1	1	2518.38	0.844417	0.842994	0.0856325	2	0.0187523	12	133.246	7.21877e-05
2	1	0	1	1	2534.88	0.646374	0.644945	0.0710502	2	0.0200395	12	149.75	4.58235e-05
2	1	0	1	1	2551.38	0.448331	0.446839	0.0578013	2	0.0210992	12	166.253	2.58279e-05
2	1	0	1	1	2567.92	0.249888	0.248386	0.0444418	2	0.0219465	13	182.79	1.10387e-05
2	1	0	1	1	2584.43	0.0518466	0.050406	0.030507	2	0.0225655	13	199.294	1.53774e-06
2	1	0	1	1	2600.93	-0.146197	-0.147783	0.012659	2	0.022928	13	215.797	-1.87079e-06
2	1	0	1	1	2617.43	-0.34424	-0.345658	-0.00316584	2	0.0230045	13	3.5842	1.0943e-06
2	0	0	1	1	2633.94	-0.542283	-0.54387	-0.0216502	2	0.0227994	13	20.0878	1.17749e-05
2	0	0	1	1	2650.44	-0.740326	-0.741781	-0.04324	2	0.0222641	13	36.5914	3.20746e-05
2	0	0	1	1	2666.94	-0.938367	-0.94028	-0.0694603	2	0.0213363	13	53.0948	6.53121e-05
2	0	0	1	0	2683.3	-0.865452	-0.867032	-0.0563643	2	0.0201996	13	69.449	4.88696e-05
2	0	0	1	0	2699.8	-0.667409	-0.668965	-0.029098	2	0.0195029	13	85.9526	1.94655e-05
2	0	0	1	0	2716.3	-0.469367	-0.470931	-0.00312126	2	0.0192423	13	102.456	1.4699e-06
2	1	0	1	0	2732.7	-0.272625	-0.274187	0.0216553	3	0.019396	13	14.2281	-5.9376e-06
2	1	0	1	0	2749.2	-0.0745823	-0.0761577	0.0455464	3	0.019954	13	30.7316	-3.46871e-06
2	1	0	1	0	2765.71	0.123461	0.122012	0.0669161	3	0.0208884	13	47.2352	8.16458e-06
2	1	0	1	0	2782.21	0.321504	0.320019	0.0820195	3	0.0221264	13	63.7388	2.62478e-05
2	1	0	1	0	2798.71	0.519547	0.518053	0.0912553	3	0.0235651	13	80.2424	4.72751e-05
2	1	0	1	0	2815.24	0.71789	0.716434	0.0979041	3	0.0251392	12	96.771	7.01418e-05
2	1	0	1	0	2831.75	0.915932	0.91447	0.102012	3	0.0267927	12	113.274	9.3287e-05
2	1	0	1	0	2848.13	0.887425	0.886063	0.0912142	3	0.0284232	12	129.662	8.08215e-05
2	1	0	1	0	2864.64	0.689382	0.687927	0.0756149	3	0.0297934	12	146.166	5.20175e-05
2	1	0	1	0	2881.14	0.491341	0.489775	0.061674	3	0.0309267	12	162.669	3.02064e-05
2	1	0	1	0	2897.64	0.293299	0.291794	0.0490131	3	0.0318391	12	179.173	1.43017e-05
2	1	0	1	0	2914.17	0.094955	0.0934291	0.034576	3	0.0325232	13	195.701	3.23041e-06
2	1	0	1	0	2930.68	-0.103088	-0.104967	0.0177529	3	0.0329551	13	212.205	-1.86347e-06
2	1	0	1	0	2947.18	-0.301131	-0.302694	0.000715592	3	0.0330961	13	228.708	-2.16605e-07
2	0	0	1	0	2963.68	-0.499174	-0.500726	-0.0168372	3	0.0329568	13	16.337	8.43082e-06
2	0	0	1	0	2980.19	-0.697215	-0.698794	-0.0387294	3	0.0325028	13	32.8404	2.70639e-05
2	0	0	1	0	2996.69	-0.895258	-0.896815	-0.0632556	3	0.0316711	13	49.344	5.67285e-05
2	0	0	1	1	3013.05	-0.908462	-0.910017	-0.0630347	3	0.0305102	13	65.7064	5.73626e-05
2	0	0	1	1	3029.56	-0.710419	-0.711969	-0.0345837	3	0.0297165	13	82.21	2.46225e-05
2	0	0	1	1	3046.06	-0.512376	-0.513954	-0.00890129	3	0.0293652	13	98.7136	4.57485e-06
2	1	0	1	1	3062.46	-0.315634	-0.317245	0.0158163	4	0.0294299	13	10.7274	-5.01765e-06
2	1	0	1	1	3078.96	-0.11759	-0.119198	0.0401396	4	0.0298993	13	27.231	-4.78455e-06
2	1	0	1	1	3095.46	0.0804527	0.0789709	0.0620207	4	0.0307498	13	43.7346	4.89782e-06
2	1	0	1	1	3111.97	0.278495	0.276869	0.0784505	4	0.0319205	13	60.2381	2.17205e-05
2	1	0	1	1	3128.47	0.476537	0.475077	0.0888517	4	0.0333092	13	76.7416	4.22114e-05
2	1	0	1	1	3145.01	0.674981	0.673505	0.0965411	4	0.0348456	12	93.2786	6.50209e-05
[...]
2	0	0	1	0	3359.31	-0.753427	-0.754961	-0.0395734	4	0.0399945	13	78.5342	2.98764e-05
2	0	0	1	0	3375.82	-0.555386	-0.557055	-0.0140451	4	0.0395592	13	95.0376	7.82391e-06
2	1	0	1	0	3392.21	-0.358644	-0.360214	0.0108143	5	0.0395365	13	7.1432	-3.89545e-06
2	1	0	1	0	3408.71	-0.160601	-0.16217	0.0341786	5	0.0399133	13	23.6468	-5.54274e-06
2	1	0	1	0	3425.22	0.0374427	0.0359913	0.0563507	5	0.0406687	13	40.1504	2.02813e-06
2	1	0	1	0	3441.72	0.235485	0.234007	0.0739923	5	0.0417549	13	56.654	1.73147e-05
2	1	0	1	0	3458.23	0.433529	0.432026	0.0851598	5	0.0430761	13	73.1576	3.67912e-05
2	1	0	1	0	3474.73	0.631572	0.629991	0.0924358	5	0.044546	13	89.6612	5.82337e-05
2	1	0	1	0	3491.27	0.830014	0.828552	0.0988875	5	0.0461332	12	106.198	8.19335e-05
2	1	0	1	0	3507.64	0.973444	0.972046	0.0999666	5	0.0477905	12	122.577	9.71721e-05
2	1	0	1	0	3524.15	0.775402	0.773796	0.0814294	5	0.0492728	12	139.081	6.30097e-05
2	1	0	1	0	3540.65	0.57736	0.575897	0.067441	5	0.050497	12	155.584	3.88391e-05
2	1	0	1	0	3557.16	0.379317	0.377849	0.0540578	5	0.0514954	12	172.088	2.04257e-05
2	1	0	1	0	3573.68	0.180974	0.179526	0.0401434	5	0.052271	13	188.616	7.20679e-06
2	1	0	1	0	3590.19	-0.0170696	-0.0187853	0.0249391	5	0.0528092	13	205.12	-4.68489e-07
2	1	0	1	0	3606.69	-0.215113	-0.216686	0.00798819	5	0.0530682	13	221.624	-1.73093e-06
2	0	0	1	0	3623.19	-0.413155	-0.414712	-0.00848017	5	0.0530549	13	9.0019	3.51683e-06
2	0	0	1	0	3639.7	-0.611197	-0.612707	-0.027151	5	0.0527632	13	25.5054	1.66356e-05
2	0	0	1	0	3656.2	-0.80924	-0.810855	-0.0488852	5	0.0521393	13	42.009	3.96388e-05
2	0	0	1	1	3672.56	-0.994481	-0.996254	-0.074224	5	0.0511226	13	58.3714	7.3946e-05
2	0	0	1	1	3689.07	-0.796437	-0.798018	-0.0441681	5	0.0501658	13	74.875	3.52469e-05
2	0	0	1	1	3705.57	-0.598394	-0.599814	-0.0184509	5	0.049654	13	91.3786	1.10671e-05
2	1	0	1	1	3722.08	-0.400351	-0.401797	0.0052837	5	0.0495462	13	3.6676	-2.12297e-06
2	1	0	1	1	3738.47	-0.203609	-0.205165	0.0281985	6	0.0498268	13	20.0628	-5.78533e-06
2	1	0	1	1	3754.97	-0.00556583	-0.00718959	0.0503349	6	0.0504792	13	36.5664	-3.61887e-07
2	1	0	1	1	3771.48	0.192475	0.191036	0.0682393	6	0.0514648	13	53.0698	1.30362e-05
2	1	0	1	1	3787.98	0.390518	0.389013	0.0803327	6	0.0527002	13	69.5734	3.12504e-05
2	1	0	1	1	3804.48	0.588561	0.587023	0.0877713	6	0.0540926	13	86.077	5.15238e-05
2	1	0	1	1	3821.02	0.787005	0.785578	0.0949604	6	0.0556012	12	102.614	7.45988e-05
2	1	0	1	1	3837.52	0.985046	0.983573	0.100731	6	0.0572175	12	119.117	9.90761e-05
2	1	0	1	1	3853.9	0.818411	0.817002	0.0832916	6	0.0587277	12	135.497	6.80494e-05
2	1	0	1	1	3870.41	0.620368	0.618847	0.0691435	6	0.0599812	12	152	4.27893e-05
2	1	0	1	1	3886.91	0.422325	0.420884	0.0558381	6	0.0610085	12	168.504	2.35014e-05
2	1	0	1	1	3903.44	0.223984	0.222391	0.0418354	6	0.0618189	13	185.032	9.30384e-06
2	1	0	1	1	3919.94	0.025941	0.0244431	0.02773	6	0.062397	13	201.536	6.77808e-07
2	1	0	1	1	3936.45	-0.172103	-0.17366	0.0102442	6	0.0627122	13	218.039	-1.779e-06
2	0	0	1	1	3952.95	-0.370145	-0.371707	-0.00475763	6	0.0627555	13	5.4178	1.76845e-06
2	0	0	1	1	3969.45	-0.568189	-0.569699	-0.0215415	6	0.0625366	13	21.9214	1.22722e-05
2	0	0	1	1	3985.96	-0.766232	-0.767713	-0.0419753	6	0.0620112	13	38.425	3.2225e-05
2	0	0	1	1	4002.46	-0.964273	-0.965813	-0.0676174	6	0.0611164	13	54.9284	6.53058e-05
2	0	0	1	0	4018.82	-0.839447	-0.841002	-0.0482433	6	0.0601104	13	71.2909	4.05727e-05
2	0	0	1	0	4035.33	-0.641405	-0.64295	-0.0237692	6	0.0595282	13	87.7944	1.52824e-05
2	0	0	1	0	4051.83	-0.443361	-0.444945	0.000228412	6	0.0593392	13	0.000000000000000E+000	-1.01631e-07
2	1	0	0	0	4056.75	-0.384298	-0.385821	0.0162291	6	0.0593569	13	4.9151	-6.26152e-06

File: resorufin_10x_frittedTiCt_FTOWE_AgAgClref_N2sparge_3_16_CV_C12.txt
EC-Lab ASCII FILE
Nb header lines : 59

Cyclic Voltammetry

Run on channel : 12 (SN 15159)
User :
CE vs. WE compliance from -10 V to 10 V
Electrode connection : standard
Potential control : Ewe
Ewe ctrl range : min = -2.50 V, max = 2.50 V
Safety Limits :
	Do not start on E overload
Acquisition started on : 06/27/2024 22:37:21.030
Technique started on : 06/27/2024 23:45:27.910
Loaded Setting File :  NONE
Saved on :
	File : resorufin_10x_frittedTiCt_FTOWE_AgAgClref_N2sparge_3_16_CV_C12.mpr
	Directory : C:\Users\user\OneDrive - California Institute of Technology\Desktop\Big James\06272024_resorufin_spEC_test\
	Host : 10.8.34.190
Device : VMP3 (SN 1026)
Address : 131.215.231.69
EC-Lab for windows v11.50 (software)
Internet server v11.52 (firmware)
Command interpretor v11.50 (firmware)
Electrode material : Au/Pd
Initial state :
Electrolyte : NaCl (0.2M)
Comments : Fe(CN)63-/Fe(CN)64- 5.10-3 M
Reference electrode : SCE Saturated Calomel Electrode (0.241 V)
Electrode surface area : 0.001 cm²
Characteristic mass : 0.001 g
Equivalent Weight : 0.000 g/eq.
Density : 0.000 g/cm3
Volume (V) : 0.001 cm³
Cycle Definition : Charge/Discharge alternance
Ei (V)              0.000
vs.                 Eoc
dE/dt               6.000
dE/dt unit          mV/s
E1 (V)              1.000
vs.                 Ref
Step percent        50
N                   10
E range min (V)     -2.500
E range max (V)     2.500
I Range             Auto
I Range min         Unset
I Range max         Unset
I Range init        Unset
Bandwidth           5
E2 (V)              -1.000
vs.                 Ref
nc cycles           5
Reverse Scan        1
Ef (V)              0.000
vs.                 Eoc

mode	ox/red	error	control changes	counter inc.	time/s	control/V	Ewe/V	<I>/mA	cycle number	(Q-Qo)/C	I Range	step time/s	P/W
2	1	0	0	0	4086.88	-0.410404	-0.411338	0.00837839	1	0.0000000E+000	13	0.000000000000000E+000	-3.44635e-06
2	1	0	1	0	4119.81	-0.212811	-0.213588	0.030197	1	0.000387521	13	32.3404	-6.4497e-06
2	1	0	1	0	4152.82	-0.014769	-0.0168254	0.0379578	1	0.0014947	13	65.3474	-6.38654e-07
2	1	0	1	0	4185.83	0.183274	0.18238	0.0601443	1	0.00317276	13	98.3546	1.09691e-05
2	1	0	1	0	4218.83	0.381317	0.379716	0.0653065	1	0.0052024	13	131.362	2.47979e-05
2	1	0	1	0	4251.84	0.579359	0.578189	0.073176	1	0.00749761	13	164.369	4.23096e-05
2	1	0	1	0	4284.85	0.777402	0.775714	0.0806514	1	0.0100435	13	197.376	6.25625e-05
2	1	0	1	0	4317.85	0.975445	0.974809	0.0914649	1	0.0128324	13	230.383	8.91609e-05
2	1	0	1	0	4350.71	0.827413	0.825834	0.0759228	1	0.0155618	13	263.241	6.26996e-05
2	1	0	1	0	4383.72	0.629371	0.628067	0.0665942	1	0.0178788	13	296.248	4.18256e-05
2	1	0	1	0	4416.73	0.431328	0.429962	0.0530168	1	0.0198075	13	329.255	2.27952e-05
2	1	0	1	0	4449.73	0.233284	0.230917	0.0372456	1	0.0213486	13	362.262	8.60065e-06
2	1	0	1	0	4482.74	0.0352426	0.0339829	0.0271854	1	0.0224838	13	395.269	9.23839e-07
2	1	0	1	0	4515.75	-0.162801	-0.164473	0.017914	1	0.0231581	13	428.276	-2.94636e-06
2	1	0	1	0	4548.76	-0.360844	-0.362232	-0.00465467	1	0.0233289	13	5.3346	1.68607e-06
2	0	0	1	0	4581.76	-0.558886	-0.56034	-0.0189768	1	0.0229759	13	38.3416	1.06335e-05
2	0	0	1	0	4614.77	-0.756929	-0.758248	-0.0395032	1	0.0220102	13	71.3488	2.99532e-05
2	0	0	1	0	4647.78	-0.954972	-0.956347	-0.0574683	1	0.0203379	13	104.356	5.49596e-05
2	0	0	1	1	4680.55	-0.848449	-0.850151	-0.0454754	1	0.0183772	13	137.13	3.8661e-05
2	0	0	1	1	4713.56	-0.650406	-0.65183	-0.0210567	1	0.0172889	13	170.137	1.37254e-05
2	1	0	1	1	4746.57	-0.452364	-0.453266	0.00579308	1	0.0169821	13	2.5005	-2.6258e-06
2	1	0	1	1	4779.32	-0.25582	-0.257515	0.0244357	2	0.0173788	13	35.2577	-6.29257e-06
2	1	0	1	1	4812.33	-0.0577783	-0.0589737	0.0408573	2	0.0184353	13	68.2647	-2.4095e-06
2	1	0	1	1	4845.34	0.140265	0.138495	0.0530289	2	0.0200923	13	101.272	7.34424e-06
2	1	0	1	1	4878.34	0.338308	0.336637	0.0656409	2	0.0221363	13	134.279	2.20971e-05
2	1	0	1	1	4911.35	0.53635	0.534616	0.069875	2	0.0244083	13	167.286	3.73563e-05
2	1	0	1	1	4944.36	0.734393	0.73323	0.0804782	2	0.0269019	13	200.293	5.9009e-05
2	1	0	1	1	4977.37	0.932436	0.930602	0.0863117	2	0.029628	13	233.3	8.03218e-05
2	1	0	1	1	5010.22	0.870422	0.86923	0.078087	2	0.0324057	13	266.158	6.78756e-05
2	1	0	1	1	5043.23	0.67238	0.671064	0.0655632	2	0.0347697	13	299.165	4.39971e-05
2	1	0	1	1	5076.24	0.474337	0.472075	0.0503616	2	0.0367367	13	332.172	2.37745e-05
2	1	0	1	1	5109.24	0.276294	0.274867	0.0390379	2	0.0383198	13	365.179	1.07302e-05
2	1	0	1	1	5142.25	0.0782517	0.0768643	0.0304495	2	0.0395097	13	398.186	2.34048e-06
2	1	0	1	1	5175.26	-0.119791	-0.121075	0.0211954	2	0.0402628	13	431.194	-2.56623e-06
2	0	0	1	1	5208.27	-0.317834	-0.319702	-0.0053504	2	0.0405245	13	464.201	1.71053e-06
2	0	0	1	1	5241.27	-0.515877	-0.517451	-0.0147436	2	0.0403015	13	31.1734	7.6291e-06
2	0	0	1	1	5274.28	-0.71392	-0.715468	-0.0330638	2	0.0395176	13	64.1806	2.36561e-05
2	0	0	1	1	5307.29	-0.911963	-0.913832	-0.0530306	2	0.0380777	13	97.1877	4.8461e-05
2	0	0	1	0	5340.06	-0.891458	-0.89285	-0.0497919	2	0.0361133	13	129.962	4.44567e-05
2	0	0	1	0	5373.07	-0.693415	-0.694768	-0.0248265	2	0.0348897	13	162.969	1.72487e-05
2	0	0	1	0	5406.08	-0.495373	-0.497053	-0.00334887	2	0.03444	13	195.976	1.66457e-06
2	1	0	1	0	5438.83	-0.29883	-0.300526	0.0158213	3	0.0346867	13	28.2562	-4.75472e-06
2	1	0	1	0	5471.84	-0.100788	-0.102409	0.0347019	3	0.0355712	13	61.2632	-3.55379e-06
2	1	0	1	0	5504.85	0.0972555	0.0955216	0.0520478	3	0.0370594	13	94.2704	4.97169e-06
2	1	0	1	0	5537.85	0.295298	0.2939	0.059042	3	0.0389758	13	127.277	1.73524e-05
2	1	0	1	0	5570.86	0.493341	0.492169	0.07078	3	0.0411439	13	160.285	3.48358e-05
2	1	0	1	0	5603.87	0.691384	0.68999	0.0758982	3	0.0435336	13	193.292	5.23691e-05
2	1	0	1	0	5636.88	0.889426	0.88886	0.0813905	3	0.0461463	13	226.299	7.23447e-05
2	1	0	1	0	5669.73	0.913431	0.912822	0.0782242	3	0.0488986	13	259.156	7.14048e-05
2	1	0	1	0	5702.74	0.715389	0.714	0.0692785	3	0.0512994	13	292.164	4.94648e-05
2	1	0	1	0	5735.75	0.517346	0.515763	0.0545485	3	0.0533004	13	325.171	2.81341e-05
2	1	0	1	0	5768.75	0.319303	0.317778	0.0402971	3	0.0549215	13	358.178	1.28056e-05
2	1	0	1	0	5801.76	0.121261	0.119927	0.0320952	3	0.0561595	13	391.185	3.84908e-06
2	1	0	1	0	5834.77	-0.0767824	-0.0784833	0.0118981	3	0.0569857	13	424.192	-9.33804e-07
2	1	0	1	0	5867.78	-0.274824	-0.276224	0.00167127	3	0.0573322	13	457.199	-4.61644e-07
2	0	0	1	0	5900.78	-0.472868	-0.474258	-0.0105752	3	0.0572241	13	24.0052	5.01537e-06
2	0	0	1	0	5933.79	-0.670911	-0.673439	-0.0276092	3	0.0566008	13	57.0124	1.85931e-05
2	0	0	1	0	5966.8	-0.868953	-0.870867	-0.0510423	3	0.0553645	13	90.0194	4.4451e-05
2	0	0	1	1	5999.57	-0.934467	-0.935916	-0.0552705	3	0.0534708	13	122.794	5.17285e-05
2	0	0	1	1	6032.58	-0.736424	-0.738185	-0.0280151	3	0.0521018	13	155.801	2.06804e-05
2	0	0	1	1	6065.59	-0.538382	-0.539787	-0.00687252	3	0.0515072	13	188.808	3.7097e-06
2	1	0	1	1	6098.34	-0.341839	-0.343636	0.0133847	4	0.0516044	13	21.088	-4.59947e-06
2	1	0	1	1	6131.35	-0.143797	-0.145208	0.0325597	4	0.052331	13	54.095	-4.72791e-06
2	1	0	1	1	6164.36	0.0542463	0.0529456	0.0457115	4	0.0536589	13	87.1022	2.42022e-06
2	1	0	1	1	6197.36	0.252289	0.250985	0.0592634	4	0.0554527	13	120.109	1.48742e-05
2	1	0	1	1	6230.37	0.450331	0.448974	0.0662554	4	0.0575197	13	153.116	2.9747e-05
2	1	0	1	1	6263.38	0.648375	0.646598	0.0719386	4	0.0597958	13	186.124	4.65153e-05
[...]
2	0	0	1	0	6692.09	-0.779434	-0.781051	-0.0324975	4	0.0689298	13	148.466	2.53822e-05
2	0	0	1	0	6725.1	-0.581391	-0.58318	-0.0115961	4	0.0681926	13	181.473	6.76261e-06
2	1	0	1	0	6757.85	-0.384848	-0.38662	0.00292557	5	0.0681441	13	13.753	-1.13108e-06
2	1	0	1	0	6790.86	-0.186806	-0.188631	0.0281434	5	0.0687261	13	46.76	-5.30872e-06
2	1	0	1	0	6823.87	0.0112371	0.00994867	0.0412841	5	0.0699019	13	79.7672	4.10722e-07
2	1	0	1	0	6856.87	0.20928	0.20813	0.0584673	5	0.0715706	13	112.774	1.21688e-05
2	1	0	1	0	6889.88	0.407322	0.405945	0.0610551	5	0.0735141	13	145.781	2.4785e-05
2	1	0	1	0	6922.89	0.605365	0.604024	0.065593	5	0.0755958	13	178.789	3.96197e-05
2	1	0	1	0	6955.9	0.803408	0.801701	0.0719488	5	0.0778605	13	211.796	5.76815e-05
2	1	0	1	0	6988.75	0.999451	0.997875	0.0779584	5	0.0803525	13	244.653	7.77927e-05
2	1	0	1	0	7021.76	0.801407	0.799588	0.0664075	5	0.0827451	13	277.66	5.30987e-05
2	1	0	1	0	7054.77	0.603365	0.601757	0.0553497	5	0.0847502	13	310.667	3.33071e-05
2	1	0	1	0	7087.77	0.405322	0.403643	0.044721	5	0.0863997	13	343.675	1.80513e-05
2	1	0	1	0	7120.78	0.207279	0.205444	0.0303063	5	0.0876983	13	376.682	6.22624e-06
2	1	0	1	0	7153.79	0.00923657	0.00747948	0.0240371	5	0.0886311	13	409.689	1.79785e-07
2	0	0	1	0	7186.8	-0.188806	-0.18984	0.00721039	5	0.0891339	13	442.696	-1.36882e-06
2	0	0	1	0	7219.8	-0.386849	-0.387833	0.00270876	5	0.0892143	13	9.8355	-1.05055e-06
2	0	0	1	0	7252.81	-0.584891	-0.586516	-0.0186599	5	0.0888574	13	42.8425	1.09443e-05
2	0	0	1	0	7285.82	-0.782935	-0.78469	-0.0357597	5	0.0879656	13	75.8497	2.80603e-05
2	0	0	1	0	7318.82	-0.980978	-0.983085	-0.0659146	5	0.086401	13	108.857	6.47996e-05
2	0	0	1	1	7351.6	-0.822443	-0.823947	-0.0370209	5	0.084726	13	141.631	3.05032e-05
2	0	0	1	1	7384.61	-0.624401	-0.626057	-0.0157361	5	0.0838451	13	174.638	9.85169e-06
2	1	0	1	1	7417.61	-0.426357	-0.427755	0.00728707	5	0.0836548	13	7.0016	-3.11708e-06
2	1	0	1	1	7450.37	-0.229815	-0.231849	0.0230799	6	0.0840979	13	39.7586	-5.35105e-06
2	1	0	1	1	7483.38	-0.0317722	-0.0331831	0.0361401	6	0.0851226	13	72.7658	-1.19924e-06
2	1	0	1	1	7516.38	0.16627	0.164747	0.0506942	6	0.086642	13	105.773	8.35171e-06
2	1	0	1	1	7549.39	0.364313	0.362993	0.0523516	6	0.0883782	13	138.78	1.90033e-05
2	1	0	1	1	7582.4	0.562356	0.561063	0.0529445	6	0.0900794	13	171.787	2.97052e-05
2	1	0	1	1	7615.41	0.760399	0.75876	0.0587846	6	0.09191	13	204.794	4.46034e-05
2	1	0	1	1	7648.41	0.958441	0.956675	0.0668427	6	0.0939822	13	237.801	6.39467e-05
2	1	0	1	1	7681.27	0.844416	0.842717	0.059821	6	0.0961049	13	270.659	5.04121e-05
2	1	0	1	1	7714.28	0.646374	0.643898	0.0470972	6	0.0979175	13	303.666	3.03258e-05
2	1	0	1	1	7747.28	0.448331	0.446791	0.040989	6	0.0994262	13	336.673	1.83135e-05
2	1	0	1	1	7780.29	0.250288	0.248788	0.0350346	6	0.100633	13	369.68	8.71619e-06
2	1	0	1	1	7813.3	0.0522462	0.0509472	0.0222885	6	0.101526	13	402.687	1.13553e-06
2	1	0	1	1	7846.31	-0.145797	-0.147205	0.00691286	6	0.102056	13	435.695	-1.01761e-06
2	0	0	1	1	7879.31	-0.34384	-0.344497	-0.000377142	6	0.102194	13	3.1674	1.29924e-07
2	0	0	1	1	7912.32	-0.541882	-0.543292	-0.0136575	6	0.101957	13	36.1744	7.42003e-06
2	0	0	1	1	7945.33	-0.739925	-0.741436	-0.0304436	6	0.101237	13	69.1816	2.2572e-05
2	0	0	1	1	7978.33	-0.937969	-0.939299	-0.0481321	6	0.0998982	13	102.189	4.52104e-05
2	0	0	1	0	8011.11	-0.865452	-0.866738	-0.0364772	6	0.0981575	13	134.963	3.16162e-05
2	0	0	1	0	8044.12	-0.66741	-0.668893	-0.022639	6	0.09715	13	167.97	1.51431e-05
2	0	0	1	0	8077.12	-0.469367	-0.470825	0.000746609	6	0.0968245	13	0.000000000000000E+000	-3.51523e-07
2	1	0	1	0	8086.92	-0.410504	-0.412235	-0.00230298	6	0.0968537	13	9.6302	9.49369e-07